"","subject","list","position","trial_type","item","item_index","session","list_type","category","response","response_time","list_category"
"1",1,1,1,"study","Halle Berry",32,1,0,1,0,0,0
"2",1,1,2,"study","Simon Cowell",74,1,0,1,0,0,0
"3",1,1,3,"study","Kristen Stewart",49,1,0,1,0,0,0
"4",1,2,4,"study","highlighter",212,1,0,3,0,0,0
"5",1,2,5,"study","acorn",175,1,0,3,0,0,0
"6",1,2,6,"study","pie",228,1,0,3,0,0,0
"7",1,3,7,"study","Pompeii",137,1,0,2,0,0,0
"8",1,3,8,"study","Atomium",93,1,0,2,0,0,0
"9",1,3,9,"study","Cinderella Castle",104,1,0,2,0,0,0
"10",1,4,10,"study","printer",230,1,0,3,0,0,0
"11",1,4,11,"study","stamp",245,1,0,3,0,0,0
"12",1,4,12,"study","lantern",219,1,0,3,0,0,0
"13",1,5,13,"study","Emma Watson",29,1,0,1,0,0,0
"14",1,5,14,"study","Lil Wayne",53,1,0,1,0,0,0
"15",1,5,15,"study","Meryl Streep",59,1,0,1,0,0,0
"16",1,6,16,"study","Shanghai",149,1,0,2,0,0,0
"17",1,6,17,"study","Chicago",102,1,0,2,0,0,0
"18",1,6,18,"study","Mecca",128,1,0,2,0,0,0
"19",1,7,19,"study","Bill Gates",12,1,0,1,0,0,0
"20",1,7,20,"study","Drake",24,1,0,1,0,0,0
"21",1,7,21,"study","Mariah Carey",57,1,0,1,0,0,0
"22",1,8,22,"study","Colosseum",105,1,0,2,0,0,0
"23",1,8,23,"study","Kyoto",122,1,0,2,0,0,0
"24",1,8,24,"study","Delphi",108,1,0,2,0,0,0
"25",1,9,25,"study","sink",241,1,0,3,0,0,0
"26",1,9,26,"study","glass",206,1,0,3,0,0,0
"27",1,9,27,"study","briefcase",191,1,0,3,0,0,0
"28",1,1,1,"study","Quincy Market",141,1,1,2,0,0,0
"29",1,1,2,"study","Vatican City",165,1,1,2,0,0,0
"30",1,1,3,"study","Lincoln Memorial",123,1,1,2,0,0,0
"31",1,2,4,"study","teapot",247,1,1,3,0,0,0
"32",1,2,5,"study","birdhouse",184,1,1,3,0,0,0
"33",1,2,6,"study","keychain",216,1,1,3,0,0,0
"34",1,3,7,"study","Alec Baldwin",2,1,1,1,0,0,0
"35",1,3,8,"study","Ashton Kutcher",8,1,1,1,0,0,0
"36",1,3,9,"study","Scarlett Johansson",73,1,1,1,0,0,0
"37",1,4,10,"study","kleenex",217,1,1,3,0,0,0
"38",1,4,11,"study","basket",180,1,1,3,0,0,0
"39",1,4,12,"study","bowling ball",188,1,1,3,0,0,0
"40",1,5,13,"study","Denzel Washington",23,1,1,1,0,0,0
"41",1,5,14,"study","Adam Sandler",1,1,1,1,0,0,0
"42",1,5,15,"study","Alicia Keys",3,1,1,1,0,0,0
"43",1,6,16,"study","Gettysburg",113,1,1,2,0,0,0
"44",1,6,17,"study","Quebec",140,1,1,2,0,0,0
"45",1,6,18,"study","Barcelona Cathedral",95,1,1,2,0,0,0
"46",1,7,19,"study","Johnny Depp",42,1,1,1,0,0,0
"47",1,7,20,"study","Jamie Foxx",37,1,1,1,0,0,0
"48",1,7,21,"study","Brad Pitt",13,1,1,1,0,0,0
"49",1,8,22,"study","Versailles",167,1,1,2,0,0,0
"50",1,8,23,"study","Louvre",124,1,1,2,0,0,0
"51",1,8,24,"study","Universal Studios",164,1,1,2,0,0,0
"52",1,9,25,"study","cactus",193,1,1,3,0,0,0
"53",1,9,26,"study","cigar",196,1,1,3,0,0,0
"54",1,9,27,"study","hanger",210,1,1,3,0,0,0
"55",1,1,1,"study","Alcatraz",90,1,0,2,0,0,0
"56",1,1,2,"study","Rio de Janeiro",143,1,0,2,0,0,0
"57",1,1,3,"study","Amazon River",91,1,0,2,0,0,0
"58",1,2,4,"study","Lindsay Lohan",54,1,0,1,0,0,0
"59",1,2,5,"study","Cameron Diaz",16,1,0,1,0,0,0
"60",1,2,6,"study","George Clooney",30,1,0,1,0,0,0
"61",1,3,7,"study","dollar",199,1,0,3,0,0,0
"62",1,3,8,"study","staple remover",246,1,0,3,0,0,0
"63",1,3,9,"study","tent",248,1,0,3,0,0,0
"64",1,4,10,"study","Soho",152,1,0,2,0,0,0
"65",1,4,11,"study","Petra",135,1,0,2,0,0,0
"66",1,4,12,"study","Taj Mahal",158,1,0,2,0,0,0
"67",1,5,13,"study","Drew Barrymore",25,1,0,1,0,0,0
"68",1,5,14,"study","Andy Samberg",5,1,0,1,0,0,0
"69",1,5,15,"study","Ellen Page",26,1,0,1,0,0,0
"70",1,6,16,"study","cradle",197,1,0,3,0,0,0
"71",1,6,17,"study","ketchup",215,1,0,3,0,0,0
"72",1,6,18,"study","projector",231,1,0,3,0,0,0
"73",1,7,19,"study","Salt Flats",146,1,0,2,0,0,0
"74",1,7,20,"study","Redwood Forest",142,1,0,2,0,0,0
"75",1,7,21,"study","Machu Picchu",125,1,0,2,0,0,0
"76",1,8,22,"study","shovel",240,1,0,3,0,0,0
"77",1,8,23,"study","flower",204,1,0,3,0,0,0
"78",1,8,24,"study","bed",181,1,0,3,0,0,0
"79",1,9,25,"study","Ricky Martin",69,1,0,1,0,0,0
"80",1,9,26,"study","Lisa Kudrow",55,1,0,1,0,0,0
"81",1,9,27,"study","Keira Knightley",47,1,0,1,0,0,0
"82",1,1,1,"study","Kate Winslet",46,1,1,1,0,0,0
"83",1,1,2,"study","Britney Spears",14,1,1,1,0,0,0
"84",1,1,3,"study","Elton John",27,1,1,1,0,0,0
"85",1,2,4,"study","bottle",187,1,1,3,0,0,0
"86",1,2,5,"study","calculator",194,1,1,3,0,0,0
"87",1,2,6,"study","satellite dish",235,1,1,3,0,0,0
"88",1,3,7,"study","Monte Carlo",129,1,1,2,0,0,0
"89",1,3,8,"study","Niagara Falls",131,1,1,2,0,0,0
"90",1,3,9,"study","Sydney Opera House",156,1,1,2,0,0,0
"91",1,4,10,"study","Anne Hathaway",7,1,1,1,0,0,0
"92",1,4,11,"study","Amy Poehler",4,1,1,1,0,0,0
"93",1,4,12,"study","Beyonce Knowles",11,1,1,1,0,0,0
"94",1,5,13,"study","Space Needle",153,1,1,2,0,0,0
"95",1,5,14,"study","Petronas Towers",136,1,1,2,0,0,0
"96",1,5,15,"study","Hungarian Parliament",120,1,1,2,0,0,0
"97",1,6,16,"study","ladder",218,1,1,3,0,0,0
"98",1,6,17,"study","speaker",244,1,1,3,0,0,0
"99",1,6,18,"study","hurdle",213,1,1,3,0,0,0
"100",1,7,19,"study","Hoover Dam",119,1,1,2,0,0,0
"101",1,7,20,"study","Carnegie Hall",101,1,1,2,0,0,0
"102",1,7,21,"study","Roman Forum",144,1,1,2,0,0,0
"103",1,8,22,"study","Jay-Z",38,1,1,1,0,0,0
"104",1,8,23,"study","Steven Spielberg",77,1,1,1,0,0,0
"105",1,8,24,"study","Ian McKellan",35,1,1,1,0,0,0
"106",1,9,25,"study","box",189,1,1,3,0,0,0
"107",1,9,26,"study","thermometer",249,1,1,3,0,0,0
"108",1,9,27,"study","towel",251,1,1,3,0,0,0
"109",1,1,1,"study","Jonah Hill",43,1,0,1,0,0,0
"110",1,1,2,"study","Oprah Winfrey",63,1,0,1,0,0,0
"111",1,1,3,"study","Sofia Vergara",76,1,0,1,0,0,0
"112",1,2,4,"study","bell",182,1,0,3,0,0,0
"113",1,2,5,"study","mascara",223,1,0,3,0,0,0
"114",1,2,6,"study","brick",190,1,0,3,0,0,0
"115",1,3,7,"study","Ayers Rock",94,1,0,2,0,0,0
"116",1,3,8,"study","Bunker Hill",99,1,0,2,0,0,0
"117",1,3,9,"study","Globe Theater",115,1,0,2,0,0,0
"118",1,4,10,"study","tripod",253,1,0,3,0,0,0
"119",1,4,11,"study","tire",250,1,0,3,0,0,0
"120",1,4,12,"study","purse",232,1,0,3,0,0,0
"121",1,5,13,"study","Eminem",28,1,0,1,0,0,0
"122",1,5,14,"study","Jim Carrey",41,1,0,1,0,0,0
"123",1,5,15,"study","Jessica Simpson",40,1,0,1,0,0,0
"124",1,6,16,"study","Coney Island",106,1,0,2,0,0,0
"125",1,6,17,"study","Monticello",130,1,0,2,0,0,0
"126",1,6,18,"study","Tower of Pisa",161,1,0,2,0,0,0
"127",1,7,19,"study","Jackie Chan",36,1,0,1,0,0,0
"128",1,7,20,"study","Bruce Willis",15,1,0,1,0,0,0
"129",1,7,21,"study","Christian Bale",17,1,0,1,0,0,0
"130",1,8,22,"study","Stonehenge",154,1,0,2,0,0,0
"131",1,8,23,"study","Alamo",89,1,0,2,0,0,0
"132",1,8,24,"study","Oxford",133,1,0,2,0,0,0
"133",1,9,25,"study","shirt",239,1,0,3,0,0,0
"134",1,9,26,"study","anchor",176,1,0,3,0,0,0
"135",1,9,27,"study","candle",195,1,0,3,0,0,0
"136",1,1,1,"study","Great Wall of China",117,1,1,2,0,0,0
"137",1,1,2,"study","North Pole",132,1,1,2,0,0,0
"138",1,1,3,"study","Giza Pyramids",114,1,1,2,0,0,0
"139",1,2,4,"study","football",205,1,1,3,0,0,0
"140",1,2,5,"study","brush",192,1,1,3,0,0,0
"141",1,2,6,"study","helmet",211,1,1,3,0,0,0
"142",1,3,7,"study","Taylor Swift",79,1,1,1,0,0,0
"143",1,3,8,"study","Tina Fey",80,1,1,1,0,0,0
"144",1,3,9,"study","Julianne Moore",44,1,1,1,0,0,0
"145",1,4,10,"study","mango",222,1,1,3,0,0,0
"146",1,4,11,"study","skateboard",242,1,1,3,0,0,0
"147",1,4,12,"study","crayon",198,1,1,3,0,0,0
"148",1,5,13,"study","Morgan Freeman",62,1,1,1,0,0,0
"149",1,5,14,"study","Justin Bieber",45,1,1,1,0,0,0
"150",1,5,15,"study","Madonna",56,1,1,1,0,0,0
"151",1,6,16,"study","Times Square",160,1,1,2,0,0,0
"152",1,6,17,"study","United Nations Building",163,1,1,2,0,0,0
"153",1,6,18,"study","Churchill Downs",103,1,1,2,0,0,0
"154",1,7,19,"study","Russell Crowe",71,1,1,1,0,0,0
"155",1,7,20,"study","David Beckham",22,1,1,1,0,0,0
"156",1,7,21,"study","Owen Wilson",65,1,1,1,0,0,0
"157",1,8,22,"study","Trevi Fountain",162,1,1,2,0,0,0
"158",1,8,23,"study","Timbuktu",159,1,1,2,0,0,0
"159",1,8,24,"study","Brooklyn Bridge",98,1,1,2,0,0,0
"160",1,9,25,"study","perfume",227,1,1,3,0,0,0
"161",1,9,26,"study","book",186,1,1,3,0,0,0
"162",1,9,27,"study","safe",234,1,1,3,0,0,0
"163",1,1,1,"study","balloon",179,1,0,3,0,0,0
"164",1,1,2,"study","medal",224,1,0,3,0,0,0
"165",1,1,3,"study","onion",225,1,0,3,0,0,0
"166",1,2,4,"study","Florida Keys",112,1,0,2,0,0,0
"167",1,2,5,"study","Sistine Chapel",151,1,0,2,0,0,0
"168",1,2,6,"study","Hong Kong",118,1,0,2,0,0,0
"169",1,3,7,"study","Matt Damon",58,1,0,1,0,0,0
"170",1,3,8,"study","Hugh Jackman",34,1,0,1,0,0,0
"171",1,3,9,"study","Snoop Dogg",75,1,0,1,0,0,0
"172",1,4,10,"study","Masada",127,1,0,2,0,0,0
"173",1,4,11,"study","Acropolis",88,1,0,2,0,0,0
"174",1,4,12,"study","Florence",111,1,0,2,0,0,0
"175",1,5,13,"study","Orlando Bloom",64,1,0,1,0,0,0
"176",1,5,14,"study","Liam Neeson",52,1,0,1,0,0,0
"177",1,5,15,"study","Gwyneth Paltrow",31,1,0,1,0,0,0
"178",1,6,16,"study","scarf",237,1,0,3,0,0,0
"179",1,6,17,"study","fireplace",203,1,0,3,0,0,0
"180",1,6,18,"study","soap",243,1,0,3,0,0,0
"181",1,7,19,"study","Tobey Maguire",81,1,0,1,0,0,0
"182",1,7,20,"study","Larry King",50,1,0,1,0,0,0
"183",1,7,21,"study","Reese Witherspoon",68,1,0,1,0,0,0
"184",1,8,22,"study","Everglades",109,1,0,2,0,0,0
"185",1,8,23,"study","Indianapolis Speedway",121,1,0,2,0,0,0
"186",1,8,24,"study","Mall of America",126,1,0,2,0,0,0
"187",1,9,25,"study","hammer",209,1,0,3,0,0,0
"188",1,9,26,"study","saucepan",236,1,0,3,0,0,0
"189",1,9,27,"study","earrings",201,1,0,3,0,0,0
"190",1,1,1,"study","blender",185,1,1,3,0,0,0
"191",1,1,2,"study","trash can",252,1,1,3,0,0,0
"192",1,1,3,"study","glue stick",208,1,1,3,0,0,0
"193",1,2,4,"study","Arc de Triomphe",92,1,1,2,0,0,0
"194",1,2,5,"study","Serengeti Plain",148,1,1,2,0,0,0
"195",1,2,6,"study","Swiss Alps",155,1,1,2,0,0,0
"196",1,3,7,"study","Paul McCartney",66,1,1,1,0,0,0
"197",1,3,8,"study","Sylvester Stallone",78,1,1,1,0,0,0
"198",1,3,9,"study","Barack Obama",9,1,1,1,0,0,0
"199",1,4,10,"study","San Francisco",147,1,1,2,0,0,0
"200",1,4,11,"study","Grand Central Station",116,1,1,2,0,0,0
"201",1,4,12,"study","Big Ben",96,1,1,2,0,0,0
"202",1,5,13,"study","backpack",178,1,1,3,0,0,0
"203",1,5,14,"study","globe",207,1,1,3,0,0,0
"204",1,5,15,"study","umbrella",254,1,1,3,0,0,0
"205",1,6,16,"study","Leonardo DiCaprio",51,1,1,1,0,0,0
"206",1,6,17,"study","Angelina Jolie",6,1,1,1,0,0,0
"207",1,6,18,"study","Harrison Ford",33,1,1,1,0,0,0
"208",1,7,19,"study","shelf",238,1,1,3,0,0,0
"209",1,7,20,"study","bicycle",183,1,1,3,0,0,0
"210",1,7,21,"study","feather",202,1,1,3,0,0,0
"211",1,8,22,"study","Jennifer Lawrence",39,1,1,1,0,0,0
"212",1,8,23,"study","Ben Stiller",10,1,1,1,0,0,0
"213",1,8,24,"study","Kobe Bryant",48,1,1,1,0,0,0
"214",1,9,25,"study","Tahiti",157,1,1,2,0,0,0
"215",1,9,26,"study","Prague",139,1,1,2,0,0,0
"216",1,9,27,"study","Venice",166,1,1,2,0,0,0
"217",2,1,1,"study","Oprah Winfrey",63,1,1,1,0,0,0
"218",2,1,2,"study","Amy Poehler",4,1,1,1,0,0,0
"219",2,1,3,"study","Liam Neeson",52,1,1,1,0,0,0
"220",2,2,4,"study","Bunker Hill",99,1,1,2,0,0,0
"221",2,2,5,"study","United Nations Building",163,1,1,2,0,0,0
"222",2,2,6,"study","Everglades",109,1,1,2,0,0,0
"223",2,3,7,"study","projector",231,1,1,3,0,0,0
"224",2,3,8,"study","backpack",178,1,1,3,0,0,0
"225",2,3,9,"study","speaker",244,1,1,3,0,0,0
"226",2,4,10,"study","Hungarian Parliament",120,1,1,2,0,0,0
"227",2,4,11,"study","Gettysburg",113,1,1,2,0,0,0
"228",2,4,12,"study","Serengeti Plain",148,1,1,2,0,0,0
"229",2,5,13,"study","pie",228,1,1,3,0,0,0
"230",2,5,14,"study","birdhouse",184,1,1,3,0,0,0
"231",2,5,15,"study","fireplace",203,1,1,3,0,0,0
"232",2,6,16,"study","Julianne Moore",44,1,1,1,0,0,0
"233",2,6,17,"study","Justin Bieber",45,1,1,1,0,0,0
"234",2,6,18,"study","Kate Winslet",46,1,1,1,0,0,0
"235",2,7,19,"study","Space Needle",153,1,1,2,0,0,0
"236",2,7,20,"study","Quincy Market",141,1,1,2,0,0,0
"237",2,7,21,"study","Acropolis",88,1,1,2,0,0,0
"238",2,8,22,"study","skateboard",242,1,1,3,0,0,0
"239",2,8,23,"study","onion",225,1,1,3,0,0,0
"240",2,8,24,"study","thermometer",249,1,1,3,0,0,0
"241",2,9,25,"study","Leonardo DiCaprio",51,1,1,1,0,0,0
"242",2,9,26,"study","Jackie Chan",36,1,1,1,0,0,0
"243",2,9,27,"study","George Clooney",30,1,1,1,0,0,0
"244",2,1,1,"study","Kristen Stewart",49,1,0,1,0,0,0
"245",2,1,2,"study","Ashton Kutcher",8,1,0,1,0,0,0
"246",2,1,3,"study","Jamie Foxx",37,1,0,1,0,0,0
"247",2,2,4,"study","tent",248,1,0,3,0,0,0
"248",2,2,5,"study","satellite dish",235,1,0,3,0,0,0
"249",2,2,6,"study","dollar",199,1,0,3,0,0,0
"250",2,3,7,"study","Redwood Forest",142,1,0,2,0,0,0
"251",2,3,8,"study","Carnegie Hall",101,1,0,2,0,0,0
"252",2,3,9,"study","Grand Central Station",116,1,0,2,0,0,0
"253",2,4,10,"study","David Beckham",22,1,0,1,0,0,0
"254",2,4,11,"study","Scarlett Johansson",73,1,0,1,0,0,0
"255",2,4,12,"study","Tina Fey",80,1,0,1,0,0,0
"256",2,5,13,"study","shelf",238,1,0,3,0,0,0
"257",2,5,14,"study","highlighter",212,1,0,3,0,0,0
"258",2,5,15,"study","tripod",253,1,0,3,0,0,0
"259",2,6,16,"study","Mecca",128,1,0,2,0,0,0
"260",2,6,17,"study","Trevi Fountain",162,1,0,2,0,0,0
"261",2,6,18,"study","Rio de Janeiro",143,1,0,2,0,0,0
"262",2,7,19,"study","Anne Hathaway",7,1,0,1,0,0,0
"263",2,7,20,"study","Johnny Depp",42,1,0,1,0,0,0
"264",2,7,21,"study","Drew Barrymore",25,1,0,1,0,0,0
"265",2,8,22,"study","Hong Kong",118,1,0,2,0,0,0
"266",2,8,23,"study","Roman Forum",144,1,0,2,0,0,0
"267",2,8,24,"study","Times Square",160,1,0,2,0,0,0
"268",2,9,25,"study","box",189,1,0,3,0,0,0
"269",2,9,26,"study","mango",222,1,0,3,0,0,0
"270",2,9,27,"study","glass",206,1,0,3,0,0,0
"271",2,1,1,"study","Andy Samberg",5,1,1,1,0,0,0
"272",2,1,2,"study","Christian Bale",17,1,1,1,0,0,0
"273",2,1,3,"study","Bill Gates",12,1,1,1,0,0,0
"274",2,2,4,"study","blender",185,1,1,3,0,0,0
"275",2,2,5,"study","earrings",201,1,1,3,0,0,0
"276",2,2,6,"study","kleenex",217,1,1,3,0,0,0
"277",2,3,7,"study","Hoover Dam",119,1,1,2,0,0,0
"278",2,3,8,"study","Globe Theater",115,1,1,2,0,0,0
"279",2,3,9,"study","Great Wall of China",117,1,1,2,0,0,0
"280",2,4,10,"study","Britney Spears",14,1,1,1,0,0,0
"281",2,4,11,"study","Jay-Z",38,1,1,1,0,0,0
"282",2,4,12,"study","Angelina Jolie",6,1,1,1,0,0,0
"283",2,5,13,"study","Prague",139,1,1,2,0,0,0
"284",2,5,14,"study","Oxford",133,1,1,2,0,0,0
"285",2,5,15,"study","Colosseum",105,1,1,2,0,0,0
"286",2,6,16,"study","safe",234,1,1,3,0,0,0
"287",2,6,17,"study","globe",207,1,1,3,0,0,0
"288",2,6,18,"study","mascara",223,1,1,3,0,0,0
"289",2,7,19,"study","North Pole",132,1,1,2,0,0,0
"290",2,7,20,"study","Kyoto",122,1,1,2,0,0,0
"291",2,7,21,"study","Venice",166,1,1,2,0,0,0
"292",2,8,22,"study","perfume",227,1,1,3,0,0,0
"293",2,8,23,"study","calculator",194,1,1,3,0,0,0
"294",2,8,24,"study","sink",241,1,1,3,0,0,0
"295",2,9,25,"study","Ben Stiller",10,1,1,1,0,0,0
"296",2,9,26,"study","Elton John",27,1,1,1,0,0,0
"297",2,9,27,"study","Alicia Keys",3,1,1,1,0,0,0
"298",2,1,1,"study","Vatican City",165,1,0,2,0,0,0
"299",2,1,2,"study","Versailles",167,1,0,2,0,0,0
"300",2,1,3,"study","Florida Keys",112,1,0,2,0,0,0
"301",2,2,4,"study","Ricky Martin",69,1,0,1,0,0,0
"302",2,2,5,"study","Larry King",50,1,0,1,0,0,0
"303",2,2,6,"study","Kobe Bryant",48,1,0,1,0,0,0
"304",2,3,7,"study","soap",243,1,0,3,0,0,0
"305",2,3,8,"study","lantern",219,1,0,3,0,0,0
"306",2,3,9,"study","saucepan",236,1,0,3,0,0,0
"307",2,4,10,"study","Simon Cowell",74,1,0,1,0,0,0
"308",2,4,11,"study","Harrison Ford",33,1,0,1,0,0,0
"309",2,4,12,"study","Reese Witherspoon",68,1,0,1,0,0,0
"310",2,5,13,"study","bottle",187,1,0,3,0,0,0
"311",2,5,14,"study","shovel",240,1,0,3,0,0,0
"312",2,5,15,"study","football",205,1,0,3,0,0,0
"313",2,6,16,"study","Tower of Pisa",161,1,0,2,0,0,0
"314",2,6,17,"study","Pompeii",137,1,0,2,0,0,0
"315",2,6,18,"study","Masada",127,1,0,2,0,0,0
"316",2,7,19,"study","Jonah Hill",43,1,0,1,0,0,0
"317",2,7,20,"study","Lindsay Lohan",54,1,0,1,0,0,0
"318",2,7,21,"study","Sofia Vergara",76,1,0,1,0,0,0
"319",2,8,22,"study","Churchill Downs",103,1,0,2,0,0,0
"320",2,8,23,"study","Giza Pyramids",114,1,0,2,0,0,0
"321",2,8,24,"study","Monte Carlo",129,1,0,2,0,0,0
"322",2,9,25,"study","bell",182,1,0,3,0,0,0
"323",2,9,26,"study","feather",202,1,0,3,0,0,0
"324",2,9,27,"study","candle",195,1,0,3,0,0,0
"325",2,1,1,"study","Machu Picchu",125,1,1,2,0,0,0
"326",2,1,2,"study","Timbuktu",159,1,1,2,0,0,0
"327",2,1,3,"study","Mall of America",126,1,1,2,0,0,0
"328",2,2,4,"study","printer",230,1,1,3,0,0,0
"329",2,2,5,"study","bicycle",183,1,1,3,0,0,0
"330",2,2,6,"study","scarf",237,1,1,3,0,0,0
"331",2,3,7,"study","Mariah Carey",57,1,1,1,0,0,0
"332",2,3,8,"study","Taylor Swift",79,1,1,1,0,0,0
"333",2,3,9,"study","Ian McKellan",35,1,1,1,0,0,0
"334",2,4,10,"study","cigar",196,1,1,3,0,0,0
"335",2,4,11,"study","acorn",175,1,1,3,0,0,0
"336",2,4,12,"study","hanger",210,1,1,3,0,0,0
"337",2,5,13,"study","Owen Wilson",65,1,1,1,0,0,0
"338",2,5,14,"study","Tobey Maguire",81,1,1,1,0,0,0
"339",2,5,15,"study","Ellen Page",26,1,1,1,0,0,0
"340",2,6,16,"study","Lincoln Memorial",123,1,1,2,0,0,0
"341",2,6,17,"study","Coney Island",106,1,1,2,0,0,0
"342",2,6,18,"study","Petra",135,1,1,2,0,0,0
"343",2,7,19,"study","Keira Knightley",47,1,1,1,0,0,0
"344",2,7,20,"study","Adam Sandler",1,1,1,1,0,0,0
"345",2,7,21,"study","Madonna",56,1,1,1,0,0,0
"346",2,8,22,"study","stamp",245,1,1,3,0,0,0
"347",2,8,23,"study","flower",204,1,1,3,0,0,0
"348",2,8,24,"study","trash can",252,1,1,3,0,0,0
"349",2,9,25,"study","San Francisco",147,1,1,2,0,0,0
"350",2,9,26,"study","Brooklyn Bridge",98,1,1,2,0,0,0
"351",2,9,27,"study","Barcelona Cathedral",95,1,1,2,0,0,0
"352",2,1,1,"study","Alec Baldwin",2,1,0,1,0,0,0
"353",2,1,2,"study","Sylvester Stallone",78,1,0,1,0,0,0
"354",2,1,3,"study","Jennifer Lawrence",39,1,0,1,0,0,0
"355",2,2,4,"study","briefcase",191,1,0,3,0,0,0
"356",2,2,5,"study","basket",180,1,0,3,0,0,0
"357",2,2,6,"study","keychain",216,1,0,3,0,0,0
"358",2,3,7,"study","Florence",111,1,0,2,0,0,0
"359",2,3,8,"study","Salt Flats",146,1,0,2,0,0,0
"360",2,3,9,"study","Alamo",89,1,0,2,0,0,0
"361",2,4,10,"study","ladder",218,1,0,3,0,0,0
"362",2,4,11,"study","teapot",247,1,0,3,0,0,0
"363",2,4,12,"study","anchor",176,1,0,3,0,0,0
"364",2,5,13,"study","Cameron Diaz",16,1,0,1,0,0,0
"365",2,5,14,"study","Emma Watson",29,1,0,1,0,0,0
"366",2,5,15,"study","Brad Pitt",13,1,0,1,0,0,0
"367",2,6,16,"study","Delphi",108,1,0,2,0,0,0
"368",2,6,17,"study","Indianapolis Speedway",121,1,0,2,0,0,0
"369",2,6,18,"study","Petronas Towers",136,1,0,2,0,0,0
"370",2,7,19,"study","book",186,1,0,3,0,0,0
"371",2,7,20,"study","hammer",209,1,0,3,0,0,0
"372",2,7,21,"study","brush",192,1,0,3,0,0,0
"373",2,8,22,"study","Jim Carrey",41,1,0,1,0,0,0
"374",2,8,23,"study","Denzel Washington",23,1,0,1,0,0,0
"375",2,8,24,"study","Russell Crowe",71,1,0,1,0,0,0
"376",2,9,25,"study","Alcatraz",90,1,0,2,0,0,0
"377",2,9,26,"study","Louvre",124,1,0,2,0,0,0
"378",2,9,27,"study","Sistine Chapel",151,1,0,2,0,0,0
"379",2,1,1,"study","Amazon River",91,1,1,2,0,0,0
"380",2,1,2,"study","Soho",152,1,1,2,0,0,0
"381",2,1,3,"study","Ayers Rock",94,1,1,2,0,0,0
"382",2,2,4,"study","Bruce Willis",15,1,1,1,0,0,0
"383",2,2,5,"study","Matt Damon",58,1,1,1,0,0,0
"384",2,2,6,"study","Barack Obama",9,1,1,1,0,0,0
"385",2,3,7,"study","ketchup",215,1,1,3,0,0,0
"386",2,3,8,"study","hurdle",213,1,1,3,0,0,0
"387",2,3,9,"study","staple remover",246,1,1,3,0,0,0
"388",2,4,10,"study","Taj Mahal",158,1,1,2,0,0,0
"389",2,4,11,"study","Cinderella Castle",104,1,1,2,0,0,0
"390",2,4,12,"study","Monticello",130,1,1,2,0,0,0
"391",2,5,13,"study","cradle",197,1,1,3,0,0,0
"392",2,5,14,"study","tire",250,1,1,3,0,0,0
"393",2,5,15,"study","crayon",198,1,1,3,0,0,0
"394",2,6,16,"study","Jessica Simpson",40,1,1,1,0,0,0
"395",2,6,17,"study","Eminem",28,1,1,1,0,0,0
"396",2,6,18,"study","Steven Spielberg",77,1,1,1,0,0,0
"397",2,7,19,"study","Tahiti",157,1,1,2,0,0,0
"398",2,7,20,"study","Stonehenge",154,1,1,2,0,0,0
"399",2,7,21,"study","Chicago",102,1,1,2,0,0,0
"400",2,8,22,"study","Lil Wayne",53,1,1,1,0,0,0
"401",2,8,23,"study","Gwyneth Paltrow",31,1,1,1,0,0,0
"402",2,8,24,"study","Orlando Bloom",64,1,1,1,0,0,0
"403",2,9,25,"study","umbrella",254,1,1,3,0,0,0
"404",2,9,26,"study","balloon",179,1,1,3,0,0,0
"405",2,9,27,"study","bed",181,1,1,3,0,0,0
"406",2,1,1,"study","Meryl Streep",59,1,0,1,0,0,0
"407",2,1,2,"study","Hugh Jackman",34,1,0,1,0,0,0
"408",2,1,3,"study","Beyonce Knowles",11,1,0,1,0,0,0
"409",2,2,4,"study","medal",224,1,0,3,0,0,0
"410",2,2,5,"study","purse",232,1,0,3,0,0,0
"411",2,2,6,"study","bowling ball",188,1,0,3,0,0,0
"412",2,3,7,"study","Niagara Falls",131,1,0,2,0,0,0
"413",2,3,8,"study","Arc de Triomphe",92,1,0,2,0,0,0
"414",2,3,9,"study","Big Ben",96,1,0,2,0,0,0
"415",2,4,10,"study","towel",251,1,0,3,0,0,0
"416",2,4,11,"study","glue stick",208,1,0,3,0,0,0
"417",2,4,12,"study","helmet",211,1,0,3,0,0,0
"418",2,5,13,"study","Shanghai",149,1,0,2,0,0,0
"419",2,5,14,"study","Swiss Alps",155,1,0,2,0,0,0
"420",2,5,15,"study","Universal Studios",164,1,0,2,0,0,0
"421",2,6,16,"study","Snoop Dogg",75,1,0,1,0,0,0
"422",2,6,17,"study","Lisa Kudrow",55,1,0,1,0,0,0
"423",2,6,18,"study","Drake",24,1,0,1,0,0,0
"424",2,7,19,"study","brick",190,1,0,3,0,0,0
"425",2,7,20,"study","shirt",239,1,0,3,0,0,0
"426",2,7,21,"study","cactus",193,1,0,3,0,0,0
"427",2,8,22,"study","Morgan Freeman",62,1,0,1,0,0,0
"428",2,8,23,"study","Halle Berry",32,1,0,1,0,0,0
"429",2,8,24,"study","Paul McCartney",66,1,0,1,0,0,0
"430",2,9,25,"study","Quebec",140,1,0,2,0,0,0
"431",2,9,26,"study","Atomium",93,1,0,2,0,0,0
"432",2,9,27,"study","Sydney Opera House",156,1,0,2,0,0,0
"433",3,1,1,"study","Hugh Jackman",34,1,0,1,0,0,0
"434",3,1,2,"study","Taylor Swift",79,1,0,1,0,0,0
"435",3,1,3,"study","Lil Wayne",53,1,0,1,0,0,0
"436",3,2,4,"study","keychain",216,1,0,3,0,0,0
"437",3,2,5,"study","anchor",176,1,0,3,0,0,0
"438",3,2,6,"study","safe",234,1,0,3,0,0,0
"439",3,3,7,"study","Redwood Forest",142,1,0,2,0,0,0
"440",3,3,8,"study","Ayers Rock",94,1,0,2,0,0,0
"441",3,3,9,"study","Colosseum",105,1,0,2,0,0,0
"442",3,4,10,"study","satellite dish",235,1,0,3,0,0,0
"443",3,4,11,"study","tire",250,1,0,3,0,0,0
"444",3,4,12,"study","medal",224,1,0,3,0,0,0
"445",3,5,13,"study","Gwyneth Paltrow",31,1,0,1,0,0,0
"446",3,5,14,"study","Mariah Carey",57,1,0,1,0,0,0
"447",3,5,15,"study","Owen Wilson",65,1,0,1,0,0,0
"448",3,6,16,"study","Stonehenge",154,1,0,2,0,0,0
"449",3,6,17,"study","Churchill Downs",103,1,0,2,0,0,0
"450",3,6,18,"study","Niagara Falls",131,1,0,2,0,0,0
"451",3,7,19,"study","Brad Pitt",13,1,0,1,0,0,0
"452",3,7,20,"study","Ellen Page",26,1,0,1,0,0,0
"453",3,7,21,"study","Oprah Winfrey",63,1,0,1,0,0,0
"454",3,8,22,"study","Delphi",108,1,0,2,0,0,0
"455",3,8,23,"study","Machu Picchu",125,1,0,2,0,0,0
"456",3,8,24,"study","Florence",111,1,0,2,0,0,0
"457",3,9,25,"study","staple remover",246,1,0,3,0,0,0
"458",3,9,26,"study","hammer",209,1,0,3,0,0,0
"459",3,9,27,"study","cactus",193,1,0,3,0,0,0
"460",3,1,1,"study","Salt Flats",146,1,1,2,0,0,0
"461",3,1,2,"study","White House",171,1,1,2,0,0,0
"462",3,1,3,"study","Mall of America",126,1,1,2,0,0,0
"463",3,2,4,"study","trash can",252,1,1,3,0,0,0
"464",3,2,5,"study","blender",185,1,1,3,0,0,0
"465",3,2,6,"study","lantern",219,1,1,3,0,0,0
"466",3,3,7,"study","Alicia Keys",3,1,1,1,0,0,0
"467",3,3,8,"study","Barack Obama",9,1,1,1,0,0,0
"468",3,3,9,"study","Sylvester Stallone",78,1,1,1,0,0,0
"469",3,4,10,"study","mango",222,1,1,3,0,0,0
"470",3,4,11,"study","bed",181,1,1,3,0,0,0
"471",3,4,12,"study","box",189,1,1,3,0,0,0
"472",3,5,13,"study","Drew Barrymore",25,1,1,1,0,0,0
"473",3,5,14,"study","Alec Baldwin",2,1,1,1,0,0,0
"474",3,5,15,"study","Amy Poehler",4,1,1,1,0,0,0
"475",3,6,16,"study","Globe Theater",115,1,1,2,0,0,0
"476",3,6,17,"study","Roman Forum",144,1,1,2,0,0,0
"477",3,6,18,"study","Big Ben",96,1,1,2,0,0,0
"478",3,7,19,"study","Justin Bieber",45,1,1,1,0,0,0
"479",3,7,20,"study","Jessica Simpson",40,1,1,1,0,0,0
"480",3,7,21,"study","Britney Spears",14,1,1,1,0,0,0
"481",3,8,22,"study","Yankee Stadium",173,1,1,2,0,0,0
"482",3,8,23,"study","Masada",127,1,1,2,0,0,0
"483",3,8,24,"study","Walk of Fame",169,1,1,2,0,0,0
"484",3,9,25,"study","candle",195,1,1,3,0,0,0
"485",3,9,26,"study","crayon",198,1,1,3,0,0,0
"486",3,9,27,"study","hurdle",213,1,1,3,0,0,0
"487",3,1,1,"study","Amazon River",91,1,0,2,0,0,0
"488",3,1,2,"study","Serengeti Plain",148,1,0,2,0,0,0
"489",3,1,3,"study","Arc de Triomphe",92,1,0,2,0,0,0
"490",3,2,4,"study","Matt Damon",58,1,0,1,0,0,0
"491",3,2,5,"study","David Beckham",22,1,0,1,0,0,0
"492",3,2,6,"study","Halle Berry",32,1,0,1,0,0,0
"493",3,3,7,"study","feather",202,1,0,3,0,0,0
"494",3,3,8,"study","towel",251,1,0,3,0,0,0
"495",3,3,9,"study","tripod",253,1,0,3,0,0,0
"496",3,4,10,"study","Sydney Opera House",156,1,0,2,0,0,0
"497",3,4,11,"study","Prague",139,1,0,2,0,0,0
"498",3,4,12,"study","United Nations Building",163,1,0,2,0,0,0
"499",3,5,13,"study","Elton John",27,1,0,1,0,0,0
"500",3,5,14,"study","Angelina Jolie",6,1,0,1,0,0,0
"501",3,5,15,"study","Eminem",28,1,0,1,0,0,0
"502",3,6,16,"study","dollar",199,1,0,3,0,0,0
"503",3,6,17,"study","ladder",218,1,0,3,0,0,0
"504",3,6,18,"study","saucepan",236,1,0,3,0,0,0
"505",3,7,19,"study","Sistine Chapel",151,1,0,2,0,0,0
"506",3,7,20,"study","San Francisco",147,1,0,2,0,0,0
"507",3,7,21,"study","Mecca",128,1,0,2,0,0,0
"508",3,8,22,"study","speaker",244,1,0,3,0,0,0
"509",3,8,23,"study","glass",206,1,0,3,0,0,0
"510",3,8,24,"study","bell",182,1,0,3,0,0,0
"511",3,9,25,"study","Sofia Vergara",76,1,0,1,0,0,0
"512",3,9,26,"study","Meryl Streep",59,1,0,1,0,0,0
"513",3,9,27,"study","Larry King",50,1,0,1,0,0,0
"514",3,1,1,"study","Kristen Stewart",49,1,1,1,0,0,0
"515",3,1,2,"study","Bruce Willis",15,1,1,1,0,0,0
"516",3,1,3,"study","Emma Watson",29,1,1,1,0,0,0
"517",3,2,4,"study","bowling ball",188,1,1,3,0,0,0
"518",3,2,5,"study","cigar",196,1,1,3,0,0,0
"519",3,2,6,"study","shirt",239,1,1,3,0,0,0
"520",3,3,7,"study","North Pole",132,1,1,2,0,0,0
"521",3,3,8,"study","Petra",135,1,1,2,0,0,0
"522",3,3,9,"study","Tower of Pisa",161,1,1,2,0,0,0
"523",3,4,10,"study","Ashton Kutcher",8,1,1,1,0,0,0
"524",3,4,11,"study","Andy Samberg",5,1,1,1,0,0,0
"525",3,4,12,"study","Bill Gates",12,1,1,1,0,0,0
"526",3,5,13,"study","Tahiti",157,1,1,2,0,0,0
"527",3,5,14,"study","Quebec",140,1,1,2,0,0,0
"528",3,5,15,"study","Kyoto",122,1,1,2,0,0,0
"529",3,6,16,"study","mascara",223,1,1,3,0,0,0
"530",3,6,17,"study","thermometer",249,1,1,3,0,0,0
"531",3,6,18,"study","kleenex",217,1,1,3,0,0,0
"532",3,7,19,"study","Indianapolis Speedway",121,1,1,2,0,0,0
"533",3,7,20,"study","Chicago",102,1,1,2,0,0,0
"534",3,7,21,"study","Shanghai",149,1,1,2,0,0,0
"535",3,8,22,"study","Jim Carrey",41,1,1,1,0,0,0
"536",3,8,23,"study","Tom Cruise",82,1,1,1,0,0,0
"537",3,8,24,"study","Jay-Z",38,1,1,1,0,0,0
"538",3,9,25,"study","brick",190,1,1,3,0,0,0
"539",3,9,26,"study","umbrella",254,1,1,3,0,0,0
"540",3,9,27,"study","vase",256,1,1,3,0,0,0
"541",3,1,1,"study","Kate Winslet",46,1,0,1,0,0,0
"542",3,1,2,"study","Reese Witherspoon",68,1,0,1,0,0,0
"543",3,1,3,"study","Tobey Maguire",81,1,0,1,0,0,0
"544",3,2,4,"study","bicycle",183,1,0,3,0,0,0
"545",3,2,5,"study","perfume",227,1,0,3,0,0,0
"546",3,2,6,"study","briefcase",191,1,0,3,0,0,0
"547",3,3,7,"study","Barcelona Cathedral",95,1,0,2,0,0,0
"548",3,3,8,"study","Carnegie Hall",101,1,0,2,0,0,0
"549",3,3,9,"study","Great Wall of China",117,1,0,2,0,0,0
"550",3,4,10,"study","water gun",258,1,0,3,0,0,0
"551",3,4,11,"study","vacuum cleaner",255,1,0,3,0,0,0
"552",3,4,12,"study","scarf",237,1,0,3,0,0,0
"553",3,5,13,"study","George Clooney",30,1,0,1,0,0,0
"554",3,5,14,"study","Julianne Moore",44,1,0,1,0,0,0
"555",3,5,15,"study","Jonah Hill",43,1,0,1,0,0,0
"556",3,6,16,"study","Everglades",109,1,0,2,0,0,0
"557",3,6,17,"study","Oxford",133,1,0,2,0,0,0
"558",3,6,18,"study","Venice",166,1,0,2,0,0,0
"559",3,7,19,"study","Jennifer Lawrence",39,1,0,1,0,0,0
"560",3,7,20,"study","Cameron Diaz",16,1,0,1,0,0,0
"561",3,7,21,"study","Denzel Washington",23,1,0,1,0,0,0
"562",3,8,22,"study","Timbuktu",159,1,0,2,0,0,0
"563",3,8,23,"study","Alcatraz",90,1,0,2,0,0,0
"564",3,8,24,"study","Pompeii",137,1,0,2,0,0,0
"565",3,9,25,"study","soap",243,1,0,3,0,0,0
"566",3,9,26,"study","backpack",178,1,0,3,0,0,0
"567",3,9,27,"study","cradle",197,1,0,3,0,0,0
"568",3,1,1,"study","Hoover Dam",119,1,1,2,0,0,0
"569",3,1,2,"study","Petronas Towers",136,1,1,2,0,0,0
"570",3,1,3,"study","Grand Central Station",116,1,1,2,0,0,0
"571",3,2,4,"study","globe",207,1,1,3,0,0,0
"572",3,2,5,"study","calculator",194,1,1,3,0,0,0
"573",3,2,6,"study","ketchup",215,1,1,3,0,0,0
"574",3,3,7,"study","Usher",84,1,1,1,0,0,0
"575",3,3,8,"study","Vin Diesel",85,1,1,1,0,0,0
"576",3,3,9,"study","Keira Knightley",47,1,1,1,0,0,0
"577",3,4,10,"study","onion",225,1,1,3,0,0,0
"578",3,4,11,"study","teapot",247,1,1,3,0,0,0
"579",3,4,12,"study","earrings",201,1,1,3,0,0,0
"580",3,5,13,"study","Paul McCartney",66,1,1,1,0,0,0
"581",3,5,14,"study","Kobe Bryant",48,1,1,1,0,0,0
"582",3,5,15,"study","Morgan Freeman",62,1,1,1,0,0,0
"583",3,6,16,"study","Vatican City",165,1,1,2,0,0,0
"584",3,6,17,"study","Vienna",168,1,1,2,0,0,0
"585",3,6,18,"study","Cinderella Castle",104,1,1,2,0,0,0
"586",3,7,19,"study","Steven Spielberg",77,1,1,1,0,0,0
"587",3,7,20,"study","Drake",24,1,1,1,0,0,0
"588",3,7,21,"study","Scarlett Johansson",73,1,1,1,0,0,0
"589",3,8,22,"study","Versailles",167,1,1,2,0,0,0
"590",3,8,23,"study","Universal Studios",164,1,1,2,0,0,0
"591",3,8,24,"study","Bunker Hill",99,1,1,2,0,0,0
"592",3,9,25,"study","purse",232,1,1,3,0,0,0
"593",3,9,26,"study","bottle",187,1,1,3,0,0,0
"594",3,9,27,"study","shelf",238,1,1,3,0,0,0
"595",3,1,1,"study","basket",180,1,0,3,0,0,0
"596",3,1,2,"study","printer",230,1,0,3,0,0,0
"597",3,1,3,"study","projector",231,1,0,3,0,0,0
"598",3,2,4,"study","Giza Pyramids",114,1,0,2,0,0,0
"599",3,2,5,"study","Swiss Alps",155,1,0,2,0,0,0
"600",3,2,6,"study","Hungarian Parliament",120,1,0,2,0,0,0
"601",3,3,7,"study","Orlando Bloom",64,1,0,1,0,0,0
"602",3,3,8,"study","Jamie Foxx",37,1,0,1,0,0,0
"603",3,3,9,"study","Tina Fey",80,1,0,1,0,0,0
"604",3,4,10,"study","Monticello",130,1,0,2,0,0,0
"605",3,4,11,"study","Alamo",89,1,0,2,0,0,0
"606",3,4,12,"study","Gettysburg",113,1,0,2,0,0,0
"607",3,5,13,"study","Ricky Martin",69,1,0,1,0,0,0
"608",3,5,14,"study","Madonna",56,1,0,1,0,0,0
"609",3,5,15,"study","Harrison Ford",33,1,0,1,0,0,0
"610",3,6,16,"study","sink",241,1,0,3,0,0,0
"611",3,6,17,"study","football",205,1,0,3,0,0,0
"612",3,6,18,"study","tent",248,1,0,3,0,0,0
"613",3,7,19,"study","Will Smith",86,1,0,1,0,0,0
"614",3,7,20,"study","Lindsay Lohan",54,1,0,1,0,0,0
"615",3,7,21,"study","Snoop Dogg",75,1,0,1,0,0,0
"616",3,8,22,"study","Florida Keys",112,1,0,2,0,0,0
"617",3,8,23,"study","Louvre",124,1,0,2,0,0,0
"618",3,8,24,"study","Monte Carlo",129,1,0,2,0,0,0
"619",3,9,25,"study","highlighter",212,1,0,3,0,0,0
"620",3,9,26,"study","shovel",240,1,0,3,0,0,0
"621",3,9,27,"study","fireplace",203,1,0,3,0,0,0
"622",3,1,1,"study","book",186,1,1,3,0,0,0
"623",3,1,2,"study","violin",257,1,1,3,0,0,0
"624",3,1,3,"study","helmet",211,1,1,3,0,0,0
"625",3,2,4,"study","Atomium",93,1,1,2,0,0,0
"626",3,2,5,"study","Space Needle",153,1,1,2,0,0,0
"627",3,2,6,"study","Times Square",160,1,1,2,0,0,0
"628",3,3,7,"study","Simon Cowell",74,1,1,1,0,0,0
"629",3,3,8,"study","Uma Thurman",83,1,1,1,0,0,0
"630",3,3,9,"study","Ben Stiller",10,1,1,1,0,0,0
"631",3,4,10,"study","Soho",152,1,1,2,0,0,0
"632",3,4,11,"study","Hong Kong",118,1,1,2,0,0,0
"633",3,4,12,"study","Brooklyn Bridge",98,1,1,2,0,0,0
"634",3,5,13,"study","balloon",179,1,1,3,0,0,0
"635",3,5,14,"study","hanger",210,1,1,3,0,0,0
"636",3,5,15,"study","whistle",259,1,1,3,0,0,0
"637",3,6,16,"study","Lisa Kudrow",55,1,1,1,0,0,0
"638",3,6,17,"study","Anne Hathaway",7,1,1,1,0,0,0
"639",3,6,18,"study","Ian McKellan",35,1,1,1,0,0,0
"640",3,7,19,"study","skateboard",242,1,1,3,0,0,0
"641",3,7,20,"study","birdhouse",184,1,1,3,0,0,0
"642",3,7,21,"study","flower",204,1,1,3,0,0,0
"643",3,8,22,"study","Johnny Depp",42,1,1,1,0,0,0
"644",3,8,23,"study","Beyonce Knowles",11,1,1,1,0,0,0
"645",3,8,24,"study","Leonardo DiCaprio",51,1,1,1,0,0,0
"646",3,9,25,"study","Trevi Fountain",162,1,1,2,0,0,0
"647",3,9,26,"study","Rio de Janeiro",143,1,1,2,0,0,0
"648",3,9,27,"study","Wimbledon",172,1,1,2,0,0,0
"649",5,1,1,"study","Grand Central Station",116,1,0,2,0,0,0
"650",5,1,2,"study","Tower of Pisa",161,1,0,2,0,0,0
"651",5,1,3,"study","Chicago",102,1,0,2,0,0,0
"652",5,2,4,"study","Paul McCartney",66,1,0,1,0,0,0
"653",5,2,5,"study","Ian McKellan",35,1,0,1,0,0,0
"654",5,2,6,"study","Drake",24,1,0,1,0,0,0
"655",5,3,7,"study","hurdle",213,1,0,3,0,0,0
"656",5,3,8,"study","bowling ball",188,1,0,3,0,0,0
"657",5,3,9,"study","football",205,1,0,3,0,0,0
"658",5,4,10,"study","Will Smith",86,1,0,1,0,0,0
"659",5,4,11,"study","Angelina Jolie",6,1,0,1,0,0,0
"660",5,4,12,"study","Tom Cruise",82,1,0,1,0,0,0
"661",5,5,13,"study","Shanghai",149,1,0,2,0,0,0
"662",5,5,14,"study","Monte Carlo",129,1,0,2,0,0,0
"663",5,5,15,"study","Colosseum",105,1,0,2,0,0,0
"664",5,6,16,"study","perfume",227,1,0,3,0,0,0
"665",5,6,17,"study","bell",182,1,0,3,0,0,0
"666",5,6,18,"study","helmet",211,1,0,3,0,0,0
"667",5,7,19,"study","Times Square",160,1,0,2,0,0,0
"668",5,7,20,"study","Big Ben",96,1,0,2,0,0,0
"669",5,7,21,"study","Hungarian Parliament",120,1,0,2,0,0,0
"670",5,8,22,"study","Alec Baldwin",2,1,0,1,0,0,0
"671",5,8,23,"study","Owen Wilson",65,1,0,1,0,0,0
"672",5,8,24,"study","Amy Poehler",4,1,0,1,0,0,0
"673",5,9,25,"study","vacuum cleaner",255,1,0,3,0,0,0
"674",5,9,26,"study","globe",207,1,0,3,0,0,0
"675",5,9,27,"study","balloon",179,1,0,3,0,0,0
"676",5,1,1,"study","printer",230,1,1,3,0,0,0
"677",5,1,2,"study","mascara",223,1,1,3,0,0,0
"678",5,1,3,"study","bed",181,1,1,3,0,0,0
"679",5,2,4,"study","Andy Samberg",5,1,1,1,0,0,0
"680",5,2,5,"study","Anne Hathaway",7,1,1,1,0,0,0
"681",5,2,6,"study","Johnny Depp",42,1,1,1,0,0,0
"682",5,3,7,"study","Amazon River",91,1,1,2,0,0,0
"683",5,3,8,"study","Alcatraz",90,1,1,2,0,0,0
"684",5,3,9,"study","Walk of Fame",169,1,1,2,0,0,0
"685",5,4,10,"study","onion",225,1,1,3,0,0,0
"686",5,4,11,"study","medal",224,1,1,3,0,0,0
"687",5,4,12,"study","anchor",176,1,1,3,0,0,0
"688",5,5,13,"study","Giza Pyramids",114,1,1,2,0,0,0
"689",5,5,14,"study","United Nations Building",163,1,1,2,0,0,0
"690",5,5,15,"study","Swiss Alps",155,1,1,2,0,0,0
"691",5,6,16,"study","Julianne Moore",44,1,1,1,0,0,0
"692",5,6,17,"study","Emma Watson",29,1,1,1,0,0,0
"693",5,6,18,"study","Ashton Kutcher",8,1,1,1,0,0,0
"694",5,7,19,"study","feather",202,1,1,3,0,0,0
"695",5,7,20,"study","soap",243,1,1,3,0,0,0
"696",5,7,21,"study","dollar",199,1,1,3,0,0,0
"697",5,8,22,"study","Halle Berry",32,1,1,1,0,0,0
"698",5,8,23,"study","David Beckham",22,1,1,1,0,0,0
"699",5,8,24,"study","Barack Obama",9,1,1,1,0,0,0
"700",5,9,25,"study","Mecca",128,1,1,2,0,0,0
"701",5,9,26,"study","Globe Theater",115,1,1,2,0,0,0
"702",5,9,27,"study","Mall of America",126,1,1,2,0,0,0
"703",5,1,1,"study","Denzel Washington",23,1,0,1,0,0,0
"704",5,1,2,"study","Vin Diesel",85,1,0,1,0,0,0
"705",5,1,3,"study","Bill Gates",12,1,0,1,0,0,0
"706",5,2,4,"study","crayon",198,1,0,3,0,0,0
"707",5,2,5,"study","speaker",244,1,0,3,0,0,0
"708",5,2,6,"study","sink",241,1,0,3,0,0,0
"709",5,3,7,"study","Wimbledon",172,1,0,2,0,0,0
"710",5,3,8,"study","Prague",139,1,0,2,0,0,0
"711",5,3,9,"study","Everglades",109,1,0,2,0,0,0
"712",5,4,10,"study","birdhouse",184,1,0,3,0,0,0
"713",5,4,11,"study","safe",234,1,0,3,0,0,0
"714",5,4,12,"study","water gun",258,1,0,3,0,0,0
"715",5,5,13,"study","Space Needle",153,1,0,2,0,0,0
"716",5,5,14,"study","Vatican City",165,1,0,2,0,0,0
"717",5,5,15,"study","Timbuktu",159,1,0,2,0,0,0
"718",5,6,16,"study","Steven Spielberg",77,1,0,1,0,0,0
"719",5,6,17,"study","Brad Pitt",13,1,0,1,0,0,0
"720",5,6,18,"study","Harrison Ford",33,1,0,1,0,0,0
"721",5,7,19,"study","backpack",178,1,0,3,0,0,0
"722",5,7,20,"study","calculator",194,1,0,3,0,0,0
"723",5,7,21,"study","book",186,1,0,3,0,0,0
"724",5,8,22,"study","Reese Witherspoon",68,1,0,1,0,0,0
"725",5,8,23,"study","Kristen Stewart",49,1,0,1,0,0,0
"726",5,8,24,"study","Lisa Kudrow",55,1,0,1,0,0,0
"727",5,9,25,"study","Petronas Towers",136,1,0,2,0,0,0
"728",5,9,26,"study","Florida Keys",112,1,0,2,0,0,0
"729",5,9,27,"study","Gettysburg",113,1,0,2,0,0,0
"730",5,1,1,"study","satellite dish",235,1,1,3,0,0,0
"731",5,1,2,"study","tent",248,1,1,3,0,0,0
"732",5,1,3,"study","earrings",201,1,1,3,0,0,0
"733",5,2,4,"study","Eminem",28,1,1,1,0,0,0
"734",5,2,5,"study","Beyonce Knowles",11,1,1,1,0,0,0
"735",5,2,6,"study","Ben Stiller",10,1,1,1,0,0,0
"736",5,3,7,"study","Petra",135,1,1,2,0,0,0
"737",5,3,8,"study","Trevi Fountain",162,1,1,2,0,0,0
"738",5,3,9,"study","Machu Picchu",125,1,1,2,0,0,0
"739",5,4,10,"study","Ricky Martin",69,1,1,1,0,0,0
"740",5,4,11,"study","Lindsay Lohan",54,1,1,1,0,0,0
"741",5,4,12,"study","Keira Knightley",47,1,1,1,0,0,0
"742",5,5,13,"study","umbrella",254,1,1,3,0,0,0
"743",5,5,14,"study","teapot",247,1,1,3,0,0,0
"744",5,5,15,"study","cradle",197,1,1,3,0,0,0
"745",5,6,16,"study","Serengeti Plain",148,1,1,2,0,0,0
"746",5,6,17,"study","Roman Forum",144,1,1,2,0,0,0
"747",5,6,18,"study","Ayers Rock",94,1,1,2,0,0,0
"748",5,7,19,"study","kleenex",217,1,1,3,0,0,0
"749",5,7,20,"study","glass",206,1,1,3,0,0,0
"750",5,7,21,"study","trash can",252,1,1,3,0,0,0
"751",5,8,22,"study","Matt Damon",58,1,1,1,0,0,0
"752",5,8,23,"study","Jonah Hill",43,1,1,1,0,0,0
"753",5,8,24,"study","Hugh Jackman",34,1,1,1,0,0,0
"754",5,9,25,"study","Delphi",108,1,1,2,0,0,0
"755",5,9,26,"study","Bunker Hill",99,1,1,2,0,0,0
"756",5,9,27,"study","Florence",111,1,1,2,0,0,0
"757",5,1,1,"study","Vienna",168,1,0,2,0,0,0
"758",5,1,2,"study","Louvre",124,1,0,2,0,0,0
"759",5,1,3,"study","Tahiti",157,1,0,2,0,0,0
"760",5,2,4,"study","cigar",196,1,0,3,0,0,0
"761",5,2,5,"study","towel",251,1,0,3,0,0,0
"762",5,2,6,"study","tripod",253,1,0,3,0,0,0
"763",5,3,7,"study","Jessica Simpson",40,1,0,1,0,0,0
"764",5,3,8,"study","Jay-Z",38,1,0,1,0,0,0
"765",5,3,9,"study","Mariah Carey",57,1,0,1,0,0,0
"766",5,4,10,"study","thermometer",249,1,0,3,0,0,0
"767",5,4,11,"study","projector",231,1,0,3,0,0,0
"768",5,4,12,"study","candle",195,1,0,3,0,0,0
"769",5,5,13,"study","Soho",152,1,0,2,0,0,0
"770",5,5,14,"study","Salt Flats",146,1,0,2,0,0,0
"771",5,5,15,"study","Oxford",133,1,0,2,0,0,0
"772",5,6,16,"study","Oprah Winfrey",63,1,0,1,0,0,0
"773",5,6,17,"study","Orlando Bloom",64,1,0,1,0,0,0
"774",5,6,18,"study","Madonna",56,1,0,1,0,0,0
"775",5,7,19,"study","mango",222,1,0,3,0,0,0
"776",5,7,20,"study","bottle",187,1,0,3,0,0,0
"777",5,7,21,"study","basket",180,1,0,3,0,0,0
"778",5,8,22,"study","Sofia Vergara",76,1,0,1,0,0,0
"779",5,8,23,"study","Usher",84,1,0,1,0,0,0
"780",5,8,24,"study","Larry King",50,1,0,1,0,0,0
"781",5,9,25,"study","Sydney Opera House",156,1,0,2,0,0,0
"782",5,9,26,"study","Hong Kong",118,1,0,2,0,0,0
"783",5,9,27,"study","Arc de Triomphe",92,1,0,2,0,0,0
"784",5,1,1,"study","Niagara Falls",131,1,1,2,0,0,0
"785",5,1,2,"study","Carnegie Hall",101,1,1,2,0,0,0
"786",5,1,3,"study","Barcelona Cathedral",95,1,1,2,0,0,0
"787",5,2,4,"study","Cameron Diaz",16,1,1,1,0,0,0
"788",5,2,5,"study","Elton John",27,1,1,1,0,0,0
"789",5,2,6,"study","Meryl Streep",59,1,1,1,0,0,0
"790",5,3,7,"study","blender",185,1,1,3,0,0,0
"791",5,3,8,"study","skateboard",242,1,1,3,0,0,0
"792",5,3,9,"study","shelf",238,1,1,3,0,0,0
"793",5,4,10,"study","Lil Wayne",53,1,1,1,0,0,0
"794",5,4,11,"study","Jim Carrey",41,1,1,1,0,0,0
"795",5,4,12,"study","George Clooney",30,1,1,1,0,0,0
"796",5,5,13,"study","North Pole",132,1,1,2,0,0,0
"797",5,5,14,"study","Universal Studios",164,1,1,2,0,0,0
"798",5,5,15,"study","Versailles",167,1,1,2,0,0,0
"799",5,6,16,"study","staple remover",246,1,1,3,0,0,0
"800",5,6,17,"study","ketchup",215,1,1,3,0,0,0
"801",5,6,18,"study","vase",256,1,1,3,0,0,0
"802",5,7,19,"study","Alicia Keys",3,1,1,1,0,0,0
"803",5,7,20,"study","Scarlett Johansson",73,1,1,1,0,0,0
"804",5,7,21,"study","Uma Thurman",83,1,1,1,0,0,0
"805",5,8,22,"study","bicycle",183,1,1,3,0,0,0
"806",5,8,23,"study","briefcase",191,1,1,3,0,0,0
"807",5,8,24,"study","tire",250,1,1,3,0,0,0
"808",5,9,25,"study","Cinderella Castle",104,1,1,2,0,0,0
"809",5,9,26,"study","Masada",127,1,1,2,0,0,0
"810",5,9,27,"study","Monticello",130,1,1,2,0,0,0
"811",5,1,1,"study","Redwood Forest",142,1,0,2,0,0,0
"812",5,1,2,"study","Kyoto",122,1,0,2,0,0,0
"813",5,1,3,"study","Churchill Downs",103,1,0,2,0,0,0
"814",5,2,4,"study","Jamie Foxx",37,1,0,1,0,0,0
"815",5,2,5,"study","Kobe Bryant",48,1,0,1,0,0,0
"816",5,2,6,"study","Bruce Willis",15,1,0,1,0,0,0
"817",5,3,7,"study","shovel",240,1,0,3,0,0,0
"818",5,3,8,"study","keychain",216,1,0,3,0,0,0
"819",5,3,9,"study","brick",190,1,0,3,0,0,0
"820",5,4,10,"study","Quebec",140,1,0,2,0,0,0
"821",5,4,11,"study","Pompeii",137,1,0,2,0,0,0
"822",5,4,12,"study","Alamo",89,1,0,2,0,0,0
"823",5,5,13,"study","Ellen Page",26,1,0,1,0,0,0
"824",5,5,14,"study","Tina Fey",80,1,0,1,0,0,0
"825",5,5,15,"study","Morgan Freeman",62,1,0,1,0,0,0
"826",5,6,16,"study","hammer",209,1,0,3,0,0,0
"827",5,6,17,"study","fireplace",203,1,0,3,0,0,0
"828",5,6,18,"study","cactus",193,1,0,3,0,0,0
"829",5,7,19,"study","Tobey Maguire",81,1,0,1,0,0,0
"830",5,7,20,"study","Justin Bieber",45,1,0,1,0,0,0
"831",5,7,21,"study","Taylor Swift",79,1,0,1,0,0,0
"832",5,8,22,"study","ladder",218,1,0,3,0,0,0
"833",5,8,23,"study","lantern",219,1,0,3,0,0,0
"834",5,8,24,"study","box",189,1,0,3,0,0,0
"835",5,9,25,"study","Venice",166,1,0,2,0,0,0
"836",5,9,26,"study","Rio de Janeiro",143,1,0,2,0,0,0
"837",5,9,27,"study","Sistine Chapel",151,1,0,2,0,0,0
"838",5,1,1,"study","Atomium",93,1,1,2,0,0,0
"839",5,1,2,"study","Indianapolis Speedway",121,1,1,2,0,0,0
"840",5,1,3,"study","Great Wall of China",117,1,1,2,0,0,0
"841",5,2,4,"study","highlighter",212,1,1,3,0,0,0
"842",5,2,5,"study","purse",232,1,1,3,0,0,0
"843",5,2,6,"study","scarf",237,1,1,3,0,0,0
"844",5,3,7,"study","Sylvester Stallone",78,1,1,1,0,0,0
"845",5,3,8,"study","Leonardo DiCaprio",51,1,1,1,0,0,0
"846",5,3,9,"study","Kate Winslet",46,1,1,1,0,0,0
"847",5,4,10,"study","whistle",259,1,1,3,0,0,0
"848",5,4,11,"study","saucepan",236,1,1,3,0,0,0
"849",5,4,12,"study","flower",204,1,1,3,0,0,0
"850",5,5,13,"study","Britney Spears",14,1,1,1,0,0,0
"851",5,5,14,"study","Drew Barrymore",25,1,1,1,0,0,0
"852",5,5,15,"study","Snoop Dogg",75,1,1,1,0,0,0
"853",5,6,16,"study","Yankee Stadium",173,1,1,2,0,0,0
"854",5,6,17,"study","Hoover Dam",119,1,1,2,0,0,0
"855",5,6,18,"study","San Francisco",147,1,1,2,0,0,0
"856",5,7,19,"study","shirt",239,1,1,3,0,0,0
"857",5,7,20,"study","hanger",210,1,1,3,0,0,0
"858",5,7,21,"study","violin",257,1,1,3,0,0,0
"859",5,8,22,"study","Simon Cowell",74,1,1,1,0,0,0
"860",5,8,23,"study","Jennifer Lawrence",39,1,1,1,0,0,0
"861",5,8,24,"study","Gwyneth Paltrow",31,1,1,1,0,0,0
"862",5,9,25,"study","Brooklyn Bridge",98,1,1,2,0,0,0
"863",5,9,26,"study","White House",171,1,1,2,0,0,0
"864",5,9,27,"study","Stonehenge",154,1,1,2,0,0,0
"865",6,1,1,"study","Jim Carrey",41,1,1,1,0,0,0
"866",6,1,2,"study","Gwyneth Paltrow",31,1,1,1,0,0,0
"867",6,1,3,"study","Simon Cowell",74,1,1,1,0,0,0
"868",6,2,4,"study","purse",232,1,1,3,0,0,0
"869",6,2,5,"study","crayon",198,1,1,3,0,0,0
"870",6,2,6,"study","medal",224,1,1,3,0,0,0
"871",6,3,7,"study","Everglades",109,1,1,2,0,0,0
"872",6,3,8,"study","Machu Picchu",125,1,1,2,0,0,0
"873",6,3,9,"study","Rio de Janeiro",143,1,1,2,0,0,0
"874",6,4,10,"study","tire",250,1,1,3,0,0,0
"875",6,4,11,"study","tent",248,1,1,3,0,0,0
"876",6,4,12,"study","onion",225,1,1,3,0,0,0
"877",6,5,13,"study","Delphi",108,1,1,2,0,0,0
"878",6,5,14,"study","Bunker Hill",99,1,1,2,0,0,0
"879",6,5,15,"study","Vatican City",165,1,1,2,0,0,0
"880",6,6,16,"study","Meryl Streep",59,1,1,1,0,0,0
"881",6,6,17,"study","Angelina Jolie",6,1,1,1,0,0,0
"882",6,6,18,"study","Ricky Martin",69,1,1,1,0,0,0
"883",6,7,19,"study","Vienna",168,1,1,2,0,0,0
"884",6,7,20,"study","Quebec",140,1,1,2,0,0,0
"885",6,7,21,"study","Timbuktu",159,1,1,2,0,0,0
"886",6,8,22,"study","Tina Fey",80,1,1,1,0,0,0
"887",6,8,23,"study","Johnny Depp",42,1,1,1,0,0,0
"888",6,8,24,"study","Madonna",56,1,1,1,0,0,0
"889",6,9,25,"study","satellite dish",235,1,1,3,0,0,0
"890",6,9,26,"study","fireplace",203,1,1,3,0,0,0
"891",6,9,27,"study","balloon",179,1,1,3,0,0,0
"892",6,1,1,"study","mascara",223,1,0,3,0,0,0
"893",6,1,2,"study","saucepan",236,1,0,3,0,0,0
"894",6,1,3,"study","perfume",227,1,0,3,0,0,0
"895",6,2,4,"study","Lindsay Lohan",54,1,0,1,0,0,0
"896",6,2,5,"study","Keira Knightley",47,1,0,1,0,0,0
"897",6,2,6,"study","Britney Spears",14,1,0,1,0,0,0
"898",6,3,7,"study","Atomium",93,1,0,2,0,0,0
"899",6,3,8,"study","Yankee Stadium",173,1,0,2,0,0,0
"900",6,3,9,"study","Globe Theater",115,1,0,2,0,0,0
"901",6,4,10,"study","Cameron Diaz",16,1,0,1,0,0,0
"902",6,4,11,"study","Leonardo DiCaprio",51,1,0,1,0,0,0
"903",6,4,12,"study","Harrison Ford",33,1,0,1,0,0,0
"904",6,5,13,"study","Florida Keys",112,1,0,2,0,0,0
"905",6,5,14,"study","Brooklyn Bridge",98,1,0,2,0,0,0
"906",6,5,15,"study","Chicago",102,1,0,2,0,0,0
"907",6,6,16,"study","water gun",258,1,0,3,0,0,0
"908",6,6,17,"study","glass",206,1,0,3,0,0,0
"909",6,6,18,"study","whistle",259,1,0,3,0,0,0
"910",6,7,19,"study","Snoop Dogg",75,1,0,1,0,0,0
"911",6,7,20,"study","Justin Bieber",45,1,0,1,0,0,0
"912",6,7,21,"study","Barack Obama",9,1,0,1,0,0,0
"913",6,8,22,"study","Monte Carlo",129,1,0,2,0,0,0
"914",6,8,23,"study","Oxford",133,1,0,2,0,0,0
"915",6,8,24,"study","Sydney Opera House",156,1,0,2,0,0,0
"916",6,9,25,"study","bed",181,1,0,3,0,0,0
"917",6,9,26,"study","bicycle",183,1,0,3,0,0,0
"918",6,9,27,"study","projector",231,1,0,3,0,0,0
"919",6,1,1,"study","printer",230,1,1,3,0,0,0
"920",6,1,2,"study","football",205,1,1,3,0,0,0
"921",6,1,3,"study","cactus",193,1,1,3,0,0,0
"922",6,2,4,"study","Roman Forum",144,1,1,2,0,0,0
"923",6,2,5,"study","Soho",152,1,1,2,0,0,0
"924",6,2,6,"study","Alcatraz",90,1,1,2,0,0,0
"925",6,3,7,"study","Kristen Stewart",49,1,1,1,0,0,0
"926",6,3,8,"study","Kobe Bryant",48,1,1,1,0,0,0
"927",6,3,9,"study","Bill Gates",12,1,1,1,0,0,0
"928",6,4,10,"study","Mall of America",126,1,1,2,0,0,0
"929",6,4,11,"study","Versailles",167,1,1,2,0,0,0
"930",6,4,12,"study","Tahiti",157,1,1,2,0,0,0
"931",6,5,13,"study","speaker",244,1,1,3,0,0,0
"932",6,5,14,"study","globe",207,1,1,3,0,0,0
"933",6,5,15,"study","hammer",209,1,1,3,0,0,0
"934",6,6,16,"study","Uma Thurman",83,1,1,1,0,0,0
"935",6,6,17,"study","Scarlett Johansson",73,1,1,1,0,0,0
"936",6,6,18,"study","Larry King",50,1,1,1,0,0,0
"937",6,7,19,"study","book",186,1,1,3,0,0,0
"938",6,7,20,"study","tripod",253,1,1,3,0,0,0
"939",6,7,21,"study","highlighter",212,1,1,3,0,0,0
"940",6,8,22,"study","Morgan Freeman",62,1,1,1,0,0,0
"941",6,8,23,"study","Lil Wayne",53,1,1,1,0,0,0
"942",6,8,24,"study","Anne Hathaway",7,1,1,1,0,0,0
"943",6,9,25,"study","Amazon River",91,1,1,2,0,0,0
"944",6,9,26,"study","Carnegie Hall",101,1,1,2,0,0,0
"945",6,9,27,"study","Shanghai",149,1,1,2,0,0,0
"946",6,1,1,"study","Eminem",28,1,0,1,0,0,0
"947",6,1,2,"study","Jay-Z",38,1,0,1,0,0,0
"948",6,1,3,"study","Denzel Washington",23,1,0,1,0,0,0
"949",6,2,4,"study","hurdle",213,1,0,3,0,0,0
"950",6,2,5,"study","lantern",219,1,0,3,0,0,0
"951",6,2,6,"study","basket",180,1,0,3,0,0,0
"952",6,3,7,"study","Barcelona Cathedral",95,1,0,2,0,0,0
"953",6,3,8,"study","Mecca",128,1,0,2,0,0,0
"954",6,3,9,"study","Indianapolis Speedway",121,1,0,2,0,0,0
"955",6,4,10,"study","Matt Damon",58,1,0,1,0,0,0
"956",6,4,11,"study","Kate Winslet",46,1,0,1,0,0,0
"957",6,4,12,"study","Emma Watson",29,1,0,1,0,0,0
"958",6,5,13,"study","staple remover",246,1,0,3,0,0,0
"959",6,5,14,"study","towel",251,1,0,3,0,0,0
"960",6,5,15,"study","feather",202,1,0,3,0,0,0
"961",6,6,16,"study","United Nations Building",163,1,0,2,0,0,0
"962",6,6,17,"study","Florence",111,1,0,2,0,0,0
"963",6,6,18,"study","Arc de Triomphe",92,1,0,2,0,0,0
"964",6,7,19,"study","earrings",201,1,0,3,0,0,0
"965",6,7,20,"study","calculator",194,1,0,3,0,0,0
"966",6,7,21,"study","teapot",247,1,0,3,0,0,0
"967",6,8,22,"study","Ashton Kutcher",8,1,0,1,0,0,0
"968",6,8,23,"study","Ellen Page",26,1,0,1,0,0,0
"969",6,8,24,"study","Drew Barrymore",25,1,0,1,0,0,0
"970",6,9,25,"study","Louvre",124,1,0,2,0,0,0
"971",6,9,26,"study","Petra",135,1,0,2,0,0,0
"972",6,9,27,"study","Hong Kong",118,1,0,2,0,0,0
"973",6,1,1,"study","Universal Studios",164,1,1,2,0,0,0
"974",6,1,2,"study","Masada",127,1,1,2,0,0,0
"975",6,1,3,"study","Big Ben",96,1,1,2,0,0,0
"976",6,2,4,"study","Usher",84,1,1,1,0,0,0
"977",6,2,5,"study","Owen Wilson",65,1,1,1,0,0,0
"978",6,2,6,"study","Taylor Swift",79,1,1,1,0,0,0
"979",6,3,7,"study","bottle",187,1,1,3,0,0,0
"980",6,3,8,"study","ketchup",215,1,1,3,0,0,0
"981",6,3,9,"study","soap",243,1,1,3,0,0,0
"982",6,4,10,"study","Redwood Forest",142,1,1,2,0,0,0
"983",6,4,11,"study","Salt Flats",146,1,1,2,0,0,0
"984",6,4,12,"study","Prague",139,1,1,2,0,0,0
"985",6,5,13,"study","Ian McKellan",35,1,1,1,0,0,0
"986",6,5,14,"study","David Beckham",22,1,1,1,0,0,0
"987",6,5,15,"study","Amy Poehler",4,1,1,1,0,0,0
"988",6,6,16,"study","safe",234,1,1,3,0,0,0
"989",6,6,17,"study","hanger",210,1,1,3,0,0,0
"990",6,6,18,"study","skateboard",242,1,1,3,0,0,0
"991",6,7,19,"study","Jennifer Lawrence",39,1,1,1,0,0,0
"992",6,7,20,"study","Alicia Keys",3,1,1,1,0,0,0
"993",6,7,21,"study","Julianne Moore",44,1,1,1,0,0,0
"994",6,8,22,"study","Colosseum",105,1,1,2,0,0,0
"995",6,8,23,"study","Kyoto",122,1,1,2,0,0,0
"996",6,8,24,"study","Ayers Rock",94,1,1,2,0,0,0
"997",6,9,25,"study","helmet",211,1,1,3,0,0,0
"998",6,9,26,"study","shovel",240,1,1,3,0,0,0
"999",6,9,27,"study","briefcase",191,1,1,3,0,0,0
"1000",6,1,1,"study","brick",190,1,0,3,0,0,0
"1001",6,1,2,"study","umbrella",254,1,0,3,0,0,0
"1002",6,1,3,"study","scarf",237,1,0,3,0,0,0
"1003",6,2,4,"study","Sistine Chapel",151,1,0,2,0,0,0
"1004",6,2,5,"study","White House",171,1,0,2,0,0,0
"1005",6,2,6,"study","Cinderella Castle",104,1,0,2,0,0,0
"1006",6,3,7,"study","Andy Samberg",5,1,0,1,0,0,0
"1007",6,3,8,"study","Hugh Jackman",34,1,0,1,0,0,0
"1008",6,3,9,"study","Jamie Foxx",37,1,0,1,0,0,0
"1009",6,4,10,"study","keychain",216,1,0,3,0,0,0
"1010",6,4,11,"study","backpack",178,1,0,3,0,0,0
"1011",6,4,12,"study","anchor",176,1,0,3,0,0,0
"1012",6,5,13,"study","Paul McCartney",66,1,0,1,0,0,0
"1013",6,5,14,"study","Alec Baldwin",2,1,0,1,0,0,0
"1014",6,5,15,"study","Ben Stiller",10,1,0,1,0,0,0
"1015",6,6,16,"study","Times Square",160,1,0,2,0,0,0
"1016",6,6,17,"study","Churchill Downs",103,1,0,2,0,0,0
"1017",6,6,18,"study","Grand Central Station",116,1,0,2,0,0,0
"1018",6,7,19,"study","Will Smith",86,1,0,1,0,0,0
"1019",6,7,20,"study","Sofia Vergara",76,1,0,1,0,0,0
"1020",6,7,21,"study","Steven Spielberg",77,1,0,1,0,0,0
"1021",6,8,22,"study","Serengeti Plain",148,1,0,2,0,0,0
"1022",6,8,23,"study","Niagara Falls",131,1,0,2,0,0,0
"1023",6,8,24,"study","Alamo",89,1,0,2,0,0,0
"1024",6,9,25,"study","dollar",199,1,0,3,0,0,0
"1025",6,9,26,"study","bowling ball",188,1,0,3,0,0,0
"1026",6,9,27,"study","candle",195,1,0,3,0,0,0
"1027",6,1,1,"study","Brad Pitt",13,1,1,1,0,0,0
"1028",6,1,2,"study","Oprah Winfrey",63,1,1,1,0,0,0
"1029",6,1,3,"study","Orlando Bloom",64,1,1,1,0,0,0
"1030",6,2,4,"study","North Pole",132,1,1,2,0,0,0
"1031",6,2,5,"study","Swiss Alps",155,1,1,2,0,0,0
"1032",6,2,6,"study","Petronas Towers",136,1,1,2,0,0,0
"1033",6,3,7,"study","bell",182,1,1,3,0,0,0
"1034",6,3,8,"study","cradle",197,1,1,3,0,0,0
"1035",6,3,9,"study","ladder",218,1,1,3,0,0,0
"1036",6,4,10,"study","Wimbledon",172,1,1,2,0,0,0
"1037",6,4,11,"study","Tower of Pisa",161,1,1,2,0,0,0
"1038",6,4,12,"study","Hoover Dam",119,1,1,2,0,0,0
"1039",6,5,13,"study","Tom Cruise",82,1,1,1,0,0,0
"1040",6,5,14,"study","Drake",24,1,1,1,0,0,0
"1041",6,5,15,"study","Jessica Simpson",40,1,1,1,0,0,0
"1042",6,6,16,"study","flower",204,1,1,3,0,0,0
"1043",6,6,17,"study","vacuum cleaner",255,1,1,3,0,0,0
"1044",6,6,18,"study","blender",185,1,1,3,0,0,0
"1045",6,7,19,"study","Bruce Willis",15,1,1,1,0,0,0
"1046",6,7,20,"study","Beyonce Knowles",11,1,1,1,0,0,0
"1047",6,7,21,"study","Elton John",27,1,1,1,0,0,0
"1048",6,8,22,"study","trash can",252,1,1,3,0,0,0
"1049",6,8,23,"study","mango",222,1,1,3,0,0,0
"1050",6,8,24,"study","box",189,1,1,3,0,0,0
"1051",6,9,25,"study","Great Wall of China",117,1,1,2,0,0,0
"1052",6,9,26,"study","Walk of Fame",169,1,1,2,0,0,0
"1053",6,9,27,"study","Venice",166,1,1,2,0,0,0
"1054",6,1,1,"study","Sylvester Stallone",78,1,0,1,0,0,0
"1055",6,1,2,"study","Lisa Kudrow",55,1,0,1,0,0,0
"1056",6,1,3,"study","Reese Witherspoon",68,1,0,1,0,0,0
"1057",6,2,4,"study","Trevi Fountain",162,1,0,2,0,0,0
"1058",6,2,5,"study","Pompeii",137,1,0,2,0,0,0
"1059",6,2,6,"study","San Francisco",147,1,0,2,0,0,0
"1060",6,3,7,"study","shelf",238,1,0,3,0,0,0
"1061",6,3,8,"study","cigar",196,1,0,3,0,0,0
"1062",6,3,9,"study","vase",256,1,0,3,0,0,0
"1063",6,4,10,"study","Tobey Maguire",81,1,0,1,0,0,0
"1064",6,4,11,"study","Mariah Carey",57,1,0,1,0,0,0
"1065",6,4,12,"study","George Clooney",30,1,0,1,0,0,0
"1066",6,5,13,"study","thermometer",249,1,0,3,0,0,0
"1067",6,5,14,"study","birdhouse",184,1,0,3,0,0,0
"1068",6,5,15,"study","violin",257,1,0,3,0,0,0
"1069",6,6,16,"study","Monticello",130,1,0,2,0,0,0
"1070",6,6,17,"study","Gettysburg",113,1,0,2,0,0,0
"1071",6,6,18,"study","Hungarian Parliament",120,1,0,2,0,0,0
"1072",6,7,19,"study","kleenex",217,1,0,3,0,0,0
"1073",6,7,20,"study","shirt",239,1,0,3,0,0,0
"1074",6,7,21,"study","sink",241,1,0,3,0,0,0
"1075",6,8,22,"study","Space Needle",153,1,0,2,0,0,0
"1076",6,8,23,"study","Giza Pyramids",114,1,0,2,0,0,0
"1077",6,8,24,"study","Stonehenge",154,1,0,2,0,0,0
"1078",6,9,25,"study","Halle Berry",32,1,0,1,0,0,0
"1079",6,9,26,"study","Jonah Hill",43,1,0,1,0,0,0
"1080",6,9,27,"study","Vin Diesel",85,1,0,1,0,0,0
"1081",7,1,1,"study","calculator",194,1,0,3,0,0,0
"1082",7,1,2,"study","shelf",238,1,0,3,0,0,0
"1083",7,1,3,"study","earrings",201,1,0,3,0,0,0
"1084",7,2,4,"study","Indianapolis Speedway",121,1,0,2,0,0,0
"1085",7,2,5,"study","Shanghai",149,1,0,2,0,0,0
"1086",7,2,6,"study","Sydney Opera House",156,1,0,2,0,0,0
"1087",7,3,7,"study","Johnny Depp",42,1,0,1,0,0,0
"1088",7,3,8,"study","Jessica Simpson",40,1,0,1,0,0,0
"1089",7,3,9,"study","Reese Witherspoon",68,1,0,1,0,0,0
"1090",7,4,10,"study","satellite dish",235,1,0,3,0,0,0
"1091",7,4,11,"study","ladder",218,1,0,3,0,0,0
"1092",7,4,12,"study","briefcase",191,1,0,3,0,0,0
"1093",7,5,13,"study","Morgan Freeman",62,1,0,1,0,0,0
"1094",7,5,14,"study","Mariah Carey",57,1,0,1,0,0,0
"1095",7,5,15,"study","Jay-Z",38,1,0,1,0,0,0
"1096",7,6,16,"study","Ayers Rock",94,1,0,2,0,0,0
"1097",7,6,17,"study","Colosseum",105,1,0,2,0,0,0
"1098",7,6,18,"study","Tower of Pisa",161,1,0,2,0,0,0
"1099",7,7,19,"study","Elton John",27,1,0,1,0,0,0
"1100",7,7,20,"study","Bill Gates",12,1,0,1,0,0,0
"1101",7,7,21,"study","Halle Berry",32,1,0,1,0,0,0
"1102",7,8,22,"study","tire",250,1,0,3,0,0,0
"1103",7,8,23,"study","thermometer",249,1,0,3,0,0,0
"1104",7,8,24,"study","box",189,1,0,3,0,0,0
"1105",7,9,25,"study","Wimbledon",172,1,0,2,0,0,0
"1106",7,9,26,"study","Quebec",140,1,0,2,0,0,0
"1107",7,9,27,"study","White House",171,1,0,2,0,0,0
"1108",7,1,1,"study","Petronas Towers",136,1,1,2,0,0,0
"1109",7,1,2,"study","Redwood Forest",142,1,1,2,0,0,0
"1110",7,1,3,"study","Gettysburg",113,1,1,2,0,0,0
"1111",7,2,4,"study","book",186,1,1,3,0,0,0
"1112",7,2,5,"study","kleenex",217,1,1,3,0,0,0
"1113",7,2,6,"study","basket",180,1,1,3,0,0,0
"1114",7,3,7,"study","Keira Knightley",47,1,1,1,0,0,0
"1115",7,3,8,"study","Drew Barrymore",25,1,1,1,0,0,0
"1116",7,3,9,"study","Julianne Moore",44,1,1,1,0,0,0
"1117",7,4,10,"study","Hong Kong",118,1,1,2,0,0,0
"1118",7,4,11,"study","Brooklyn Bridge",98,1,1,2,0,0,0
"1119",7,4,12,"study","Carnegie Hall",101,1,1,2,0,0,0
"1120",7,5,13,"study","bed",181,1,1,3,0,0,0
"1121",7,5,14,"study","flower",204,1,1,3,0,0,0
"1122",7,5,15,"study","perfume",227,1,1,3,0,0,0
"1123",7,6,16,"study","Meryl Streep",59,1,1,1,0,0,0
"1124",7,6,17,"study","Kate Winslet",46,1,1,1,0,0,0
"1125",7,6,18,"study","Jonah Hill",43,1,1,1,0,0,0
"1126",7,7,19,"study","Hungarian Parliament",120,1,1,2,0,0,0
"1127",7,7,20,"study","Rio de Janeiro",143,1,1,2,0,0,0
"1128",7,7,21,"study","Florence",111,1,1,2,0,0,0
"1129",7,8,22,"study","Sofia Vergara",76,1,1,1,0,0,0
"1130",7,8,23,"study","Jim Carrey",41,1,1,1,0,0,0
"1131",7,8,24,"study","Leonardo DiCaprio",51,1,1,1,0,0,0
"1132",7,9,25,"study","cradle",197,1,1,3,0,0,0
"1133",7,9,26,"study","highlighter",212,1,1,3,0,0,0
"1134",7,9,27,"study","lantern",219,1,1,3,0,0,0
"1135",7,1,1,"study","Florida Keys",112,1,0,2,0,0,0
"1136",7,1,2,"study","Serengeti Plain",148,1,0,2,0,0,0
"1137",7,1,3,"study","Everglades",109,1,0,2,0,0,0
"1138",7,2,4,"study","Sylvester Stallone",78,1,0,1,0,0,0
"1139",7,2,5,"study","Ashton Kutcher",8,1,0,1,0,0,0
"1140",7,2,6,"study","Ian McKellan",35,1,0,1,0,0,0
"1141",7,3,7,"study","towel",251,1,0,3,0,0,0
"1142",7,3,8,"study","blender",185,1,0,3,0,0,0
"1143",7,3,9,"study","hanger",210,1,0,3,0,0,0
"1144",7,4,10,"study","Soho",152,1,0,2,0,0,0
"1145",7,4,11,"study","Mecca",128,1,0,2,0,0,0
"1146",7,4,12,"study","Kyoto",122,1,0,2,0,0,0
"1147",7,5,13,"study","anchor",176,1,0,3,0,0,0
"1148",7,5,14,"study","vase",256,1,0,3,0,0,0
"1149",7,5,15,"study","vacuum cleaner",255,1,0,3,0,0,0
"1150",7,6,16,"study","Emma Watson",29,1,0,1,0,0,0
"1151",7,6,17,"study","Ellen Page",26,1,0,1,0,0,0
"1152",7,6,18,"study","Madonna",56,1,0,1,0,0,0
"1153",7,7,19,"study","staple remover",246,1,0,3,0,0,0
"1154",7,7,20,"study","saucepan",236,1,0,3,0,0,0
"1155",7,7,21,"study","bell",182,1,0,3,0,0,0
"1156",7,8,22,"study","Chicago",102,1,0,2,0,0,0
"1157",7,8,23,"study","Alcatraz",90,1,0,2,0,0,0
"1158",7,8,24,"study","Bunker Hill",99,1,0,2,0,0,0
"1159",7,9,25,"study","Justin Bieber",45,1,0,1,0,0,0
"1160",7,9,26,"study","George Clooney",30,1,0,1,0,0,0
"1161",7,9,27,"study","Britney Spears",14,1,0,1,0,0,0
"1162",7,1,1,"study","Uma Thurman",83,1,1,1,0,0,0
"1163",7,1,2,"study","Drake",24,1,1,1,0,0,0
"1164",7,1,3,"study","Anne Hathaway",7,1,1,1,0,0,0
"1165",7,2,4,"study","bowling ball",188,1,1,3,0,0,0
"1166",7,2,5,"study","birdhouse",184,1,1,3,0,0,0
"1167",7,2,6,"study","bottle",187,1,1,3,0,0,0
"1168",7,3,7,"study","Prague",139,1,1,2,0,0,0
"1169",7,3,8,"study","Hoover Dam",119,1,1,2,0,0,0
"1170",7,3,9,"study","Vienna",168,1,1,2,0,0,0
"1171",7,4,10,"study","Taylor Swift",79,1,1,1,0,0,0
"1172",7,4,11,"study","Lindsay Lohan",54,1,1,1,0,0,0
"1173",7,4,12,"study","Denzel Washington",23,1,1,1,0,0,0
"1174",7,5,13,"study","Swiss Alps",155,1,1,2,0,0,0
"1175",7,5,14,"study","Churchill Downs",103,1,1,2,0,0,0
"1176",7,5,15,"study","Salt Flats",146,1,1,2,0,0,0
"1177",7,6,16,"study","purse",232,1,1,3,0,0,0
"1178",7,6,17,"study","brick",190,1,1,3,0,0,0
"1179",7,6,18,"study","crayon",198,1,1,3,0,0,0
"1180",7,7,19,"study","Jennifer Lawrence",39,1,1,1,0,0,0
"1181",7,7,20,"study","Bruce Willis",15,1,1,1,0,0,0
"1182",7,7,21,"study","Tom Cruise",82,1,1,1,0,0,0
"1183",7,8,22,"study","teapot",247,1,1,3,0,0,0
"1184",7,8,23,"study","feather",202,1,1,3,0,0,0
"1185",7,8,24,"study","hammer",209,1,1,3,0,0,0
"1186",7,9,25,"study","Masada",127,1,1,2,0,0,0
"1187",7,9,26,"study","Arc de Triomphe",92,1,1,2,0,0,0
"1188",7,9,27,"study","Trevi Fountain",162,1,1,2,0,0,0
"1189",7,1,1,"study","scarf",237,1,0,3,0,0,0
"1190",7,1,2,"study","trash can",252,1,0,3,0,0,0
"1191",7,1,3,"study","sink",241,1,0,3,0,0,0
"1192",7,2,4,"study","Monte Carlo",129,1,0,2,0,0,0
"1193",7,2,5,"study","Pompeii",137,1,0,2,0,0,0
"1194",7,2,6,"study","Sistine Chapel",151,1,0,2,0,0,0
"1195",7,3,7,"study","David Beckham",22,1,0,1,0,0,0
"1196",7,3,8,"study","Beyonce Knowles",11,1,0,1,0,0,0
"1197",7,3,9,"study","Gwyneth Paltrow",31,1,0,1,0,0,0
"1198",7,4,10,"study","Barcelona Cathedral",95,1,0,2,0,0,0
"1199",7,4,11,"study","Mall of America",126,1,0,2,0,0,0
"1200",7,4,12,"study","Cinderella Castle",104,1,0,2,0,0,0
"1201",7,5,13,"study","Eminem",28,1,0,1,0,0,0
"1202",7,5,14,"study","Orlando Bloom",64,1,0,1,0,0,0
"1203",7,5,15,"study","Matt Damon",58,1,0,1,0,0,0
"1204",7,6,16,"study","shovel",240,1,0,3,0,0,0
"1205",7,6,17,"study","dollar",199,1,0,3,0,0,0
"1206",7,6,18,"study","candle",195,1,0,3,0,0,0
"1207",7,7,19,"study","Delphi",108,1,0,2,0,0,0
"1208",7,7,20,"study","North Pole",132,1,0,2,0,0,0
"1209",7,7,21,"study","Walk of Fame",169,1,0,2,0,0,0
"1210",7,8,22,"study","printer",230,1,0,3,0,0,0
"1211",7,8,23,"study","backpack",178,1,0,3,0,0,0
"1212",7,8,24,"study","keychain",216,1,0,3,0,0,0
"1213",7,9,25,"study","Brad Pitt",13,1,0,1,0,0,0
"1214",7,9,26,"study","Alec Baldwin",2,1,0,1,0,0,0
"1215",7,9,27,"study","Lil Wayne",53,1,0,1,0,0,0
"1216",7,1,1,"study","Harrison Ford",33,1,1,1,0,0,0
"1217",7,1,2,"study","Lisa Kudrow",55,1,1,1,0,0,0
"1218",7,1,3,"study","Amy Poehler",4,1,1,1,0,0,0
"1219",7,2,4,"study","cactus",193,1,1,3,0,0,0
"1220",7,2,5,"study","ketchup",215,1,1,3,0,0,0
"1221",7,2,6,"study","whistle",259,1,1,3,0,0,0
"1222",7,3,7,"study","United Nations Building",163,1,1,2,0,0,0
"1223",7,3,8,"study","Alamo",89,1,1,2,0,0,0
"1224",7,3,9,"study","Machu Picchu",125,1,1,2,0,0,0
"1225",7,4,10,"study","fireplace",203,1,1,3,0,0,0
"1226",7,4,11,"study","medal",224,1,1,3,0,0,0
"1227",7,4,12,"study","umbrella",254,1,1,3,0,0,0
"1228",7,5,13,"study","Petra",135,1,1,2,0,0,0
"1229",7,5,14,"study","Venice",166,1,1,2,0,0,0
"1230",7,5,15,"study","Tahiti",157,1,1,2,0,0,0
"1231",7,6,16,"study","Snoop Dogg",75,1,1,1,0,0,0
"1232",7,6,17,"study","Andy Samberg",5,1,1,1,0,0,0
"1233",7,6,18,"study","Barack Obama",9,1,1,1,0,0,0
"1234",7,7,19,"study","Roman Forum",144,1,1,2,0,0,0
"1235",7,7,20,"study","Universal Studios",164,1,1,2,0,0,0
"1236",7,7,21,"study","San Francisco",147,1,1,2,0,0,0
"1237",7,8,22,"study","Kobe Bryant",48,1,1,1,0,0,0
"1238",7,8,23,"study","Usher",84,1,1,1,0,0,0
"1239",7,8,24,"study","Simon Cowell",74,1,1,1,0,0,0
"1240",7,9,25,"study","onion",225,1,1,3,0,0,0
"1241",7,9,26,"study","shirt",239,1,1,3,0,0,0
"1242",7,9,27,"study","helmet",211,1,1,3,0,0,0
"1243",7,1,1,"study","Louvre",124,1,0,2,0,0,0
"1244",7,1,2,"study","Big Ben",96,1,0,2,0,0,0
"1245",7,1,3,"study","Vatican City",165,1,0,2,0,0,0
"1246",7,2,4,"study","Ricky Martin",69,1,0,1,0,0,0
"1247",7,2,5,"study","Angelina Jolie",6,1,0,1,0,0,0
"1248",7,2,6,"study","Scarlett Johansson",73,1,0,1,0,0,0
"1249",7,3,7,"study","tent",248,1,0,3,0,0,0
"1250",7,3,8,"study","speaker",244,1,0,3,0,0,0
"1251",7,3,9,"study","cigar",196,1,0,3,0,0,0
"1252",7,4,10,"study","Hugh Jackman",34,1,0,1,0,0,0
"1253",7,4,11,"study","Paul McCartney",66,1,0,1,0,0,0
"1254",7,4,12,"study","Steven Spielberg",77,1,0,1,0,0,0
"1255",7,5,13,"study","Versailles",167,1,0,2,0,0,0
"1256",7,5,14,"study","Great Wall of China",117,1,0,2,0,0,0
"1257",7,5,15,"study","Oxford",133,1,0,2,0,0,0
"1258",7,6,16,"study","projector",231,1,0,3,0,0,0
"1259",7,6,17,"study","skateboard",242,1,0,3,0,0,0
"1260",7,6,18,"study","football",205,1,0,3,0,0,0
"1261",7,7,19,"study","Jamie Foxx",37,1,0,1,0,0,0
"1262",7,7,20,"study","Cameron Diaz",16,1,0,1,0,0,0
"1263",7,7,21,"study","Alicia Keys",3,1,0,1,0,0,0
"1264",7,8,22,"study","Monticello",130,1,0,2,0,0,0
"1265",7,8,23,"study","Niagara Falls",131,1,0,2,0,0,0
"1266",7,8,24,"study","Grand Central Station",116,1,0,2,0,0,0
"1267",7,9,25,"study","globe",207,1,0,3,0,0,0
"1268",7,9,26,"study","violin",257,1,0,3,0,0,0
"1269",7,9,27,"study","mango",222,1,0,3,0,0,0
"1270",7,1,1,"study","Tobey Maguire",81,1,1,1,0,0,0
"1271",7,1,2,"study","Ben Stiller",10,1,1,1,0,0,0
"1272",7,1,3,"study","Tina Fey",80,1,1,1,0,0,0
"1273",7,2,4,"study","soap",243,1,1,3,0,0,0
"1274",7,2,5,"study","mascara",223,1,1,3,0,0,0
"1275",7,2,6,"study","water gun",258,1,1,3,0,0,0
"1276",7,3,7,"study","Timbuktu",159,1,1,2,0,0,0
"1277",7,3,8,"study","Amazon River",91,1,1,2,0,0,0
"1278",7,3,9,"study","Atomium",93,1,1,2,0,0,0
"1279",7,4,10,"study","Kristen Stewart",49,1,1,1,0,0,0
"1280",7,4,11,"study","Will Smith",86,1,1,1,0,0,0
"1281",7,4,12,"study","Vin Diesel",85,1,1,1,0,0,0
"1282",7,5,13,"study","bicycle",183,1,1,3,0,0,0
"1283",7,5,14,"study","hurdle",213,1,1,3,0,0,0
"1284",7,5,15,"study","balloon",179,1,1,3,0,0,0
"1285",7,6,16,"study","Stonehenge",154,1,1,2,0,0,0
"1286",7,6,17,"study","Globe Theater",115,1,1,2,0,0,0
"1287",7,6,18,"study","Space Needle",153,1,1,2,0,0,0
"1288",7,7,19,"study","Larry King",50,1,1,1,0,0,0
"1289",7,7,20,"study","Oprah Winfrey",63,1,1,1,0,0,0
"1290",7,7,21,"study","Owen Wilson",65,1,1,1,0,0,0
"1291",7,8,22,"study","glass",206,1,1,3,0,0,0
"1292",7,8,23,"study","tripod",253,1,1,3,0,0,0
"1293",7,8,24,"study","safe",234,1,1,3,0,0,0
"1294",7,9,25,"study","Giza Pyramids",114,1,1,2,0,0,0
"1295",7,9,26,"study","Times Square",160,1,1,2,0,0,0
"1296",7,9,27,"study","Yankee Stadium",173,1,1,2,0,0,0
"1297",8,1,1,"study","Jessica Simpson",40,1,1,1,0,0,0
"1298",8,1,2,"study","Justin Bieber",45,1,1,1,0,0,0
"1299",8,1,3,"study","Jamie Foxx",37,1,1,1,0,0,0
"1300",8,2,4,"study","football",205,1,1,3,0,0,0
"1301",8,2,5,"study","satellite dish",235,1,1,3,0,0,0
"1302",8,2,6,"study","violin",257,1,1,3,0,0,0
"1303",8,3,7,"study","Arc de Triomphe",92,1,1,2,0,0,0
"1304",8,3,8,"study","Serengeti Plain",148,1,1,2,0,0,0
"1305",8,3,9,"study","Soho",152,1,1,2,0,0,0
"1306",8,4,10,"study","thermometer",249,1,1,3,0,0,0
"1307",8,4,11,"study","cradle",197,1,1,3,0,0,0
"1308",8,4,12,"study","helmet",211,1,1,3,0,0,0
"1309",8,5,13,"study","Jim Carrey",41,1,1,1,0,0,0
"1310",8,5,14,"study","Leonardo DiCaprio",51,1,1,1,0,0,0
"1311",8,5,15,"study","Lil Wayne",53,1,1,1,0,0,0
"1312",8,6,16,"study","Everglades",109,1,1,2,0,0,0
"1313",8,6,17,"study","Monte Carlo",129,1,1,2,0,0,0
"1314",8,6,18,"study","Venice",166,1,1,2,0,0,0
"1315",8,7,19,"study","purse",232,1,1,3,0,0,0
"1316",8,7,20,"study","soap",243,1,1,3,0,0,0
"1317",8,7,21,"study","towel",251,1,1,3,0,0,0
"1318",8,8,22,"study","Ayers Rock",94,1,1,2,0,0,0
"1319",8,8,23,"study","Cinderella Castle",104,1,1,2,0,0,0
"1320",8,8,24,"study","Alcatraz",90,1,1,2,0,0,0
"1321",8,9,25,"study","Halle Berry",32,1,1,1,0,0,0
"1322",8,9,26,"study","Lindsay Lohan",54,1,1,1,0,0,0
"1323",8,9,27,"study","Hugh Jackman",34,1,1,1,0,0,0
"1324",8,1,1,"study","Giza Pyramids",114,1,0,2,0,0,0
"1325",8,1,2,"study","Swiss Alps",155,1,0,2,0,0,0
"1326",8,1,3,"study","Stonehenge",154,1,0,2,0,0,0
"1327",8,2,4,"study","tripod",253,1,0,3,0,0,0
"1328",8,2,5,"study","globe",207,1,0,3,0,0,0
"1329",8,2,6,"study","water gun",258,1,0,3,0,0,0
"1330",8,3,7,"study","Julianne Moore",44,1,0,1,0,0,0
"1331",8,3,8,"study","Snoop Dogg",75,1,0,1,0,0,0
"1332",8,3,9,"study","Tobey Maguire",81,1,0,1,0,0,0
"1333",8,4,10,"study","hammer",209,1,0,3,0,0,0
"1334",8,4,11,"study","speaker",244,1,0,3,0,0,0
"1335",8,4,12,"study","bottle",187,1,0,3,0,0,0
"1336",8,5,13,"study","Louvre",124,1,0,2,0,0,0
"1337",8,5,14,"study","Petronas Towers",136,1,0,2,0,0,0
"1338",8,5,15,"study","Universal Studios",164,1,0,2,0,0,0
"1339",8,6,16,"study","Andy Samberg",5,1,0,1,0,0,0
"1340",8,6,17,"study","Harrison Ford",33,1,0,1,0,0,0
"1341",8,6,18,"study","Johnny Depp",42,1,0,1,0,0,0
"1342",8,7,19,"study","Vatican City",165,1,0,2,0,0,0
"1343",8,7,20,"study","Hoover Dam",119,1,0,2,0,0,0
"1344",8,7,21,"study","Carnegie Hall",101,1,0,2,0,0,0
"1345",8,8,22,"study","candle",195,1,0,3,0,0,0
"1346",8,8,23,"study","skateboard",242,1,0,3,0,0,0
"1347",8,8,24,"study","blender",185,1,0,3,0,0,0
"1348",8,9,25,"study","Oprah Winfrey",63,1,0,1,0,0,0
"1349",8,9,26,"study","Orlando Bloom",64,1,0,1,0,0,0
"1350",8,9,27,"study","Madonna",56,1,0,1,0,0,0
"1351",8,1,1,"study","teapot",247,1,1,3,0,0,0
"1352",8,1,2,"study","backpack",178,1,1,3,0,0,0
"1353",8,1,3,"study","balloon",179,1,1,3,0,0,0
"1354",8,2,4,"study","Amazon River",91,1,1,2,0,0,0
"1355",8,2,5,"study","Walk of Fame",169,1,1,2,0,0,0
"1356",8,2,6,"study","Tahiti",157,1,1,2,0,0,0
"1357",8,3,7,"study","Gwyneth Paltrow",31,1,1,1,0,0,0
"1358",8,3,8,"study","Usher",84,1,1,1,0,0,0
"1359",8,3,9,"study","David Beckham",22,1,1,1,0,0,0
"1360",8,4,10,"study","bed",181,1,1,3,0,0,0
"1361",8,4,11,"study","hanger",210,1,1,3,0,0,0
"1362",8,4,12,"study","keychain",216,1,1,3,0,0,0
"1363",8,5,13,"study","Reese Witherspoon",68,1,1,1,0,0,0
"1364",8,5,14,"study","Keira Knightley",47,1,1,1,0,0,0
"1365",8,5,15,"study","Ben Stiller",10,1,1,1,0,0,0
"1366",8,6,16,"study","Gettysburg",113,1,1,2,0,0,0
"1367",8,6,17,"study","Versailles",167,1,1,2,0,0,0
"1368",8,6,18,"study","Timbuktu",159,1,1,2,0,0,0
"1369",8,7,19,"study","onion",225,1,1,3,0,0,0
"1370",8,7,20,"study","staple remover",246,1,1,3,0,0,0
"1371",8,7,21,"study","vase",256,1,1,3,0,0,0
"1372",8,8,22,"study","Ellen Page",26,1,1,1,0,0,0
"1373",8,8,23,"study","Tina Fey",80,1,1,1,0,0,0
"1374",8,8,24,"study","Amy Poehler",4,1,1,1,0,0,0
"1375",8,9,25,"study","Indianapolis Speedway",121,1,1,2,0,0,0
"1376",8,9,26,"study","Bunker Hill",99,1,1,2,0,0,0
"1377",8,9,27,"study","Trevi Fountain",162,1,1,2,0,0,0
"1378",8,1,1,"study","Anne Hathaway",7,1,0,1,0,0,0
"1379",8,1,2,"study","Cameron Diaz",16,1,0,1,0,0,0
"1380",8,1,3,"study","Sylvester Stallone",78,1,0,1,0,0,0
"1381",8,2,4,"study","Times Square",160,1,0,2,0,0,0
"1382",8,2,5,"study","Tower of Pisa",161,1,0,2,0,0,0
"1383",8,2,6,"study","Barcelona Cathedral",95,1,0,2,0,0,0
"1384",8,3,7,"study","mascara",223,1,0,3,0,0,0
"1385",8,3,8,"study","shirt",239,1,0,3,0,0,0
"1386",8,3,9,"study","box",189,1,0,3,0,0,0
"1387",8,4,10,"study","Larry King",50,1,0,1,0,0,0
"1388",8,4,11,"study","Kristen Stewart",49,1,0,1,0,0,0
"1389",8,4,12,"study","Jonah Hill",43,1,0,1,0,0,0
"1390",8,5,13,"study","Sistine Chapel",151,1,0,2,0,0,0
"1391",8,5,14,"study","Kyoto",122,1,0,2,0,0,0
"1392",8,5,15,"study","Chicago",102,1,0,2,0,0,0
"1393",8,6,16,"study","whistle",259,1,0,3,0,0,0
"1394",8,6,17,"study","flower",204,1,0,3,0,0,0
"1395",8,6,18,"study","saucepan",236,1,0,3,0,0,0
"1396",8,7,19,"study","Ricky Martin",69,1,0,1,0,0,0
"1397",8,7,20,"study","Ian McKellan",35,1,0,1,0,0,0
"1398",8,7,21,"study","Brad Pitt",13,1,0,1,0,0,0
"1399",8,8,22,"study","bowling ball",188,1,0,3,0,0,0
"1400",8,8,23,"study","umbrella",254,1,0,3,0,0,0
"1401",8,8,24,"study","basket",180,1,0,3,0,0,0
"1402",8,9,25,"study","Pompeii",137,1,0,2,0,0,0
"1403",8,9,26,"study","Colosseum",105,1,0,2,0,0,0
"1404",8,9,27,"study","Niagara Falls",131,1,0,2,0,0,0
"1405",8,1,1,"study","Alicia Keys",3,1,1,1,0,0,0
"1406",8,1,2,"study","Morgan Freeman",62,1,1,1,0,0,0
"1407",8,1,3,"study","Owen Wilson",65,1,1,1,0,0,0
"1408",8,2,4,"study","cigar",196,1,1,3,0,0,0
"1409",8,2,5,"study","brick",190,1,1,3,0,0,0
"1410",8,2,6,"study","glass",206,1,1,3,0,0,0
"1411",8,3,7,"study","Brooklyn Bridge",98,1,1,2,0,0,0
"1412",8,3,8,"study","Roman Forum",144,1,1,2,0,0,0
"1413",8,3,9,"study","Salt Flats",146,1,1,2,0,0,0
"1414",8,4,10,"study","George Clooney",30,1,1,1,0,0,0
"1415",8,4,11,"study","Emma Watson",29,1,1,1,0,0,0
"1416",8,4,12,"study","Steven Spielberg",77,1,1,1,0,0,0
"1417",8,5,13,"study","ketchup",215,1,1,3,0,0,0
"1418",8,5,14,"study","medal",224,1,1,3,0,0,0
"1419",8,5,15,"study","ladder",218,1,1,3,0,0,0
"1420",8,6,16,"study","Sydney Opera House",156,1,1,2,0,0,0
"1421",8,6,17,"study","Atomium",93,1,1,2,0,0,0
"1422",8,6,18,"study","United Nations Building",163,1,1,2,0,0,0
"1423",8,7,19,"study","birdhouse",184,1,1,3,0,0,0
"1424",8,7,20,"study","tire",250,1,1,3,0,0,0
"1425",8,7,21,"study","dollar",199,1,1,3,0,0,0
"1426",8,8,22,"study","Great Wall of China",117,1,1,2,0,0,0
"1427",8,8,23,"study","Prague",139,1,1,2,0,0,0
"1428",8,8,24,"study","Mall of America",126,1,1,2,0,0,0
"1429",8,9,25,"study","Lisa Kudrow",55,1,1,1,0,0,0
"1430",8,9,26,"study","Denzel Washington",23,1,1,1,0,0,0
"1431",8,9,27,"study","Barack Obama",9,1,1,1,0,0,0
"1432",8,1,1,"study","Uma Thurman",83,1,0,1,0,0,0
"1433",8,1,2,"study","Tom Cruise",82,1,0,1,0,0,0
"1434",8,1,3,"study","Scarlett Johansson",73,1,0,1,0,0,0
"1435",8,2,4,"study","perfume",227,1,0,3,0,0,0
"1436",8,2,5,"study","book",186,1,0,3,0,0,0
"1437",8,2,6,"study","scarf",237,1,0,3,0,0,0
"1438",8,3,7,"study","Globe Theater",115,1,0,2,0,0,0
"1439",8,3,8,"study","Florence",111,1,0,2,0,0,0
"1440",8,3,9,"study","Wimbledon",172,1,0,2,0,0,0
"1441",8,4,10,"study","shovel",240,1,0,3,0,0,0
"1442",8,4,11,"study","projector",231,1,0,3,0,0,0
"1443",8,4,12,"study","highlighter",212,1,0,3,0,0,0
"1444",8,5,13,"study","Jennifer Lawrence",39,1,0,1,0,0,0
"1445",8,5,14,"study","Drew Barrymore",25,1,0,1,0,0,0
"1446",8,5,15,"study","Sofia Vergara",76,1,0,1,0,0,0
"1447",8,6,16,"study","Masada",127,1,0,2,0,0,0
"1448",8,6,17,"study","White House",171,1,0,2,0,0,0
"1449",8,6,18,"study","Oxford",133,1,0,2,0,0,0
"1450",8,7,19,"study","Kate Winslet",46,1,0,1,0,0,0
"1451",8,7,20,"study","Elton John",27,1,0,1,0,0,0
"1452",8,7,21,"study","Paul McCartney",66,1,0,1,0,0,0
"1453",8,8,22,"study","Space Needle",153,1,0,2,0,0,0
"1454",8,8,23,"study","Hungarian Parliament",120,1,0,2,0,0,0
"1455",8,8,24,"study","North Pole",132,1,0,2,0,0,0
"1456",8,9,25,"study","hurdle",213,1,0,3,0,0,0
"1457",8,9,26,"study","cactus",193,1,0,3,0,0,0
"1458",8,9,27,"study","crayon",198,1,0,3,0,0,0
"1459",8,1,1,"study","Kobe Bryant",48,1,1,1,0,0,0
"1460",8,1,2,"study","Bill Gates",12,1,1,1,0,0,0
"1461",8,1,3,"study","Vin Diesel",85,1,1,1,0,0,0
"1462",8,2,4,"study","shelf",238,1,1,3,0,0,0
"1463",8,2,5,"study","printer",230,1,1,3,0,0,0
"1464",8,2,6,"study","bicycle",183,1,1,3,0,0,0
"1465",8,3,7,"study","Vienna",168,1,1,2,0,0,0
"1466",8,3,8,"study","Mecca",128,1,1,2,0,0,0
"1467",8,3,9,"study","Machu Picchu",125,1,1,2,0,0,0
"1468",8,4,10,"study","Britney Spears",14,1,1,1,0,0,0
"1469",8,4,11,"study","Mariah Carey",57,1,1,1,0,0,0
"1470",8,4,12,"study","Ashton Kutcher",8,1,1,1,0,0,0
"1471",8,5,13,"study","Yankee Stadium",173,1,1,2,0,0,0
"1472",8,5,14,"study","Petra",135,1,1,2,0,0,0
"1473",8,5,15,"study","Redwood Forest",142,1,1,2,0,0,0
"1474",8,6,16,"study","safe",234,1,1,3,0,0,0
"1475",8,6,17,"study","anchor",176,1,1,3,0,0,0
"1476",8,6,18,"study","bell",182,1,1,3,0,0,0
"1477",8,7,19,"study","Matt Damon",58,1,1,1,0,0,0
"1478",8,7,20,"study","Beyonce Knowles",11,1,1,1,0,0,0
"1479",8,7,21,"study","Alec Baldwin",2,1,1,1,0,0,0
"1480",8,8,22,"study","kleenex",217,1,1,3,0,0,0
"1481",8,8,23,"study","trash can",252,1,1,3,0,0,0
"1482",8,8,24,"study","earrings",201,1,1,3,0,0,0
"1483",8,9,25,"study","San Francisco",147,1,1,2,0,0,0
"1484",8,9,26,"study","Delphi",108,1,1,2,0,0,0
"1485",8,9,27,"study","Big Ben",96,1,1,2,0,0,0
"1486",8,1,1,"study","Shanghai",149,1,0,2,0,0,0
"1487",8,1,2,"study","Rio de Janeiro",143,1,0,2,0,0,0
"1488",8,1,3,"study","Hong Kong",118,1,0,2,0,0,0
"1489",8,2,4,"study","sink",241,1,0,3,0,0,0
"1490",8,2,5,"study","mango",222,1,0,3,0,0,0
"1491",8,2,6,"study","tent",248,1,0,3,0,0,0
"1492",8,3,7,"study","Taylor Swift",79,1,0,1,0,0,0
"1493",8,3,8,"study","Bruce Willis",15,1,0,1,0,0,0
"1494",8,3,9,"study","Drake",24,1,0,1,0,0,0
"1495",8,4,10,"study","Grand Central Station",116,1,0,2,0,0,0
"1496",8,4,11,"study","Quebec",140,1,0,2,0,0,0
"1497",8,4,12,"study","Monticello",130,1,0,2,0,0,0
"1498",8,5,13,"study","fireplace",203,1,0,3,0,0,0
"1499",8,5,14,"study","lantern",219,1,0,3,0,0,0
"1500",8,5,15,"study","calculator",194,1,0,3,0,0,0
"1501",8,6,16,"study","Jay-Z",38,1,0,1,0,0,0
"1502",8,6,17,"study","Simon Cowell",74,1,0,1,0,0,0
"1503",8,6,18,"study","Eminem",28,1,0,1,0,0,0
"1504",8,7,19,"study","Churchill Downs",103,1,0,2,0,0,0
"1505",8,7,20,"study","Florida Keys",112,1,0,2,0,0,0
"1506",8,7,21,"study","Alamo",89,1,0,2,0,0,0
"1507",8,8,22,"study","Meryl Streep",59,1,0,1,0,0,0
"1508",8,8,23,"study","Angelina Jolie",6,1,0,1,0,0,0
"1509",8,8,24,"study","Will Smith",86,1,0,1,0,0,0
"1510",8,9,25,"study","feather",202,1,0,3,0,0,0
"1511",8,9,26,"study","briefcase",191,1,0,3,0,0,0
"1512",8,9,27,"study","vacuum cleaner",255,1,0,3,0,0,0
"1513",9,1,1,"study","projector",231,1,0,3,0,0,0
"1514",9,1,2,"study","earrings",201,1,0,3,0,0,0
"1515",9,1,3,"study","bowling ball",188,1,0,3,0,0,0
"1516",9,2,4,"study","Vin Diesel",85,1,0,1,0,0,0
"1517",9,2,5,"study","Steven Spielberg",77,1,0,1,0,0,0
"1518",9,2,6,"study","Anne Hathaway",7,1,0,1,0,0,0
"1519",9,3,7,"study","White House",171,1,0,2,0,0,0
"1520",9,3,8,"study","Big Ben",96,1,0,2,0,0,0
"1521",9,3,9,"study","Florence",111,1,0,2,0,0,0
"1522",9,4,10,"study","brick",190,1,0,3,0,0,0
"1523",9,4,11,"study","crayon",198,1,0,3,0,0,0
"1524",9,4,12,"study","dollar",199,1,0,3,0,0,0
"1525",9,5,13,"study","Julianne Moore",44,1,0,1,0,0,0
"1526",9,5,14,"study","Hugh Jackman",34,1,0,1,0,0,0
"1527",9,5,15,"study","Lisa Kudrow",55,1,0,1,0,0,0
"1528",9,6,16,"study","Amazon River",91,1,0,2,0,0,0
"1529",9,6,17,"study","Times Square",160,1,0,2,0,0,0
"1530",9,6,18,"study","Hoover Dam",119,1,0,2,0,0,0
"1531",9,7,19,"study","vacuum cleaner",255,1,0,3,0,0,0
"1532",9,7,20,"study","hammer",209,1,0,3,0,0,0
"1533",9,7,21,"study","globe",207,1,0,3,0,0,0
"1534",9,8,22,"study","Everglades",109,1,0,2,0,0,0
"1535",9,8,23,"study","Swiss Alps",155,1,0,2,0,0,0
"1536",9,8,24,"study","Stonehenge",154,1,0,2,0,0,0
"1537",9,9,25,"study","Ben Stiller",10,1,0,1,0,0,0
"1538",9,9,26,"study","Orlando Bloom",64,1,0,1,0,0,0
"1539",9,9,27,"study","Denzel Washington",23,1,0,1,0,0,0
"1540",9,1,1,"study","Uma Thurman",83,1,1,1,0,0,0
"1541",9,1,2,"study","Keira Knightley",47,1,1,1,0,0,0
"1542",9,1,3,"study","Gwyneth Paltrow",31,1,1,1,0,0,0
"1543",9,2,4,"study","Tahiti",157,1,1,2,0,0,0
"1544",9,2,5,"study","Mall of America",126,1,1,2,0,0,0
"1545",9,2,6,"study","Alamo",89,1,1,2,0,0,0
"1546",9,3,7,"study","highlighter",212,1,1,3,0,0,0
"1547",9,3,8,"study","keychain",216,1,1,3,0,0,0
"1548",9,3,9,"study","flower",204,1,1,3,0,0,0
"1549",9,4,10,"study","Britney Spears",14,1,1,1,0,0,0
"1550",9,4,11,"study","Scarlett Johansson",73,1,1,1,0,0,0
"1551",9,4,12,"study","Reese Witherspoon",68,1,1,1,0,0,0
"1552",9,5,13,"study","Sydney Opera House",156,1,1,2,0,0,0
"1553",9,5,14,"study","Hungarian Parliament",120,1,1,2,0,0,0
"1554",9,5,15,"study","Chicago",102,1,1,2,0,0,0
"1555",9,6,16,"study","perfume",227,1,1,3,0,0,0
"1556",9,6,17,"study","balloon",179,1,1,3,0,0,0
"1557",9,6,18,"study","satellite dish",235,1,1,3,0,0,0
"1558",9,7,19,"study","Monticello",130,1,1,2,0,0,0
"1559",9,7,20,"study","Soho",152,1,1,2,0,0,0
"1560",9,7,21,"study","Monte Carlo",129,1,1,2,0,0,0
"1561",9,8,22,"study","Madonna",56,1,1,1,0,0,0
"1562",9,8,23,"study","Cameron Diaz",16,1,1,1,0,0,0
"1563",9,8,24,"study","Brad Pitt",13,1,1,1,0,0,0
"1564",9,9,25,"study","bed",181,1,1,3,0,0,0
"1565",9,9,26,"study","hanger",210,1,1,3,0,0,0
"1566",9,9,27,"study","printer",230,1,1,3,0,0,0
"1567",9,1,1,"study","Salt Flats",146,1,0,2,0,0,0
"1568",9,1,2,"study","Vienna",168,1,0,2,0,0,0
"1569",9,1,3,"study","Pompeii",137,1,0,2,0,0,0
"1570",9,2,4,"study","Jennifer Lawrence",39,1,0,1,0,0,0
"1571",9,2,5,"study","Amy Poehler",4,1,0,1,0,0,0
"1572",9,2,6,"study","Drake",24,1,0,1,0,0,0
"1573",9,3,7,"study","water gun",258,1,0,3,0,0,0
"1574",9,3,8,"study","hurdle",213,1,0,3,0,0,0
"1575",9,3,9,"study","ketchup",215,1,0,3,0,0,0
"1576",9,4,10,"study","Machu Picchu",125,1,0,2,0,0,0
"1577",9,4,11,"study","Niagara Falls",131,1,0,2,0,0,0
"1578",9,4,12,"study","Wimbledon",172,1,0,2,0,0,0
"1579",9,5,13,"study","candle",195,1,0,3,0,0,0
"1580",9,5,14,"study","tripod",253,1,0,3,0,0,0
"1581",9,5,15,"study","thermometer",249,1,0,3,0,0,0
"1582",9,6,16,"study","Drew Barrymore",25,1,0,1,0,0,0
"1583",9,6,17,"study","Will Smith",86,1,0,1,0,0,0
"1584",9,6,18,"study","Bruce Willis",15,1,0,1,0,0,0
"1585",9,7,19,"study","Globe Theater",115,1,0,2,0,0,0
"1586",9,7,20,"study","Redwood Forest",142,1,0,2,0,0,0
"1587",9,7,21,"study","Delphi",108,1,0,2,0,0,0
"1588",9,8,22,"study","skateboard",242,1,0,3,0,0,0
"1589",9,8,23,"study","trash can",252,1,0,3,0,0,0
"1590",9,8,24,"study","shelf",238,1,0,3,0,0,0
"1591",9,9,25,"study","Jamie Foxx",37,1,0,1,0,0,0
"1592",9,9,26,"study","Bill Gates",12,1,0,1,0,0,0
"1593",9,9,27,"study","Oprah Winfrey",63,1,0,1,0,0,0
"1594",9,1,1,"study","Rio de Janeiro",143,1,1,2,0,0,0
"1595",9,1,2,"study","Roman Forum",144,1,1,2,0,0,0
"1596",9,1,3,"study","Universal Studios",164,1,1,2,0,0,0
"1597",9,2,4,"study","Snoop Dogg",75,1,1,1,0,0,0
"1598",9,2,5,"study","Kate Winslet",46,1,1,1,0,0,0
"1599",9,2,6,"study","Ricky Martin",69,1,1,1,0,0,0
"1600",9,3,7,"study","vase",256,1,1,3,0,0,0
"1601",9,3,8,"study","backpack",178,1,1,3,0,0,0
"1602",9,3,9,"study","medal",224,1,1,3,0,0,0
"1603",9,4,10,"study","Elton John",27,1,1,1,0,0,0
"1604",9,4,11,"study","Jonah Hill",43,1,1,1,0,0,0
"1605",9,4,12,"study","Kristen Stewart",49,1,1,1,0,0,0
"1606",9,5,13,"study","bell",182,1,1,3,0,0,0
"1607",9,5,14,"study","cactus",193,1,1,3,0,0,0
"1608",9,5,15,"study","anchor",176,1,1,3,0,0,0
"1609",9,6,16,"study","Great Wall of China",117,1,1,2,0,0,0
"1610",9,6,17,"study","Bunker Hill",99,1,1,2,0,0,0
"1611",9,6,18,"study","Versailles",167,1,1,2,0,0,0
"1612",9,7,19,"study","Morgan Freeman",62,1,1,1,0,0,0
"1613",9,7,20,"study","Mariah Carey",57,1,1,1,0,0,0
"1614",9,7,21,"study","Kobe Bryant",48,1,1,1,0,0,0
"1615",9,8,22,"study","teapot",247,1,1,3,0,0,0
"1616",9,8,23,"study","sink",241,1,1,3,0,0,0
"1617",9,8,24,"study","saucepan",236,1,1,3,0,0,0
"1618",9,9,25,"study","Churchill Downs",103,1,1,2,0,0,0
"1619",9,9,26,"study","Petra",135,1,1,2,0,0,0
"1620",9,9,27,"study","Petronas Towers",136,1,1,2,0,0,0
"1621",9,1,1,"study","birdhouse",184,1,0,3,0,0,0
"1622",9,1,2,"study","mascara",223,1,0,3,0,0,0
"1623",9,1,3,"study","box",189,1,0,3,0,0,0
"1624",9,2,4,"study","Ian McKellan",35,1,0,1,0,0,0
"1625",9,2,5,"study","Paul McCartney",66,1,0,1,0,0,0
"1626",9,2,6,"study","Justin Bieber",45,1,0,1,0,0,0
"1627",9,3,7,"study","Arc de Triomphe",92,1,0,2,0,0,0
"1628",9,3,8,"study","Timbuktu",159,1,0,2,0,0,0
"1629",9,3,9,"study","Florida Keys",112,1,0,2,0,0,0
"1630",9,4,10,"study","Barack Obama",9,1,0,1,0,0,0
"1631",9,4,11,"study","Alicia Keys",3,1,0,1,0,0,0
"1632",9,4,12,"study","Tina Fey",80,1,0,1,0,0,0
"1633",9,5,13,"study","tire",250,1,0,3,0,0,0
"1634",9,5,14,"study","shovel",240,1,0,3,0,0,0
"1635",9,5,15,"study","cigar",196,1,0,3,0,0,0
"1636",9,6,16,"study","Atomium",93,1,0,2,0,0,0
"1637",9,6,17,"study","Ayers Rock",94,1,0,2,0,0,0
"1638",9,6,18,"study","Vatican City",165,1,0,2,0,0,0
"1639",9,7,19,"study","book",186,1,0,3,0,0,0
"1640",9,7,20,"study","violin",257,1,0,3,0,0,0
"1641",9,7,21,"study","fireplace",203,1,0,3,0,0,0
"1642",9,8,22,"study","Angelina Jolie",6,1,0,1,0,0,0
"1643",9,8,23,"study","Larry King",50,1,0,1,0,0,0
"1644",9,8,24,"study","Jessica Simpson",40,1,0,1,0,0,0
"1645",9,9,25,"study","San Francisco",147,1,0,2,0,0,0
"1646",9,9,26,"study","Space Needle",153,1,0,2,0,0,0
"1647",9,9,27,"study","Giza Pyramids",114,1,0,2,0,0,0
"1648",9,1,1,"study","Johnny Depp",42,1,1,1,0,0,0
"1649",9,1,2,"study","Jim Carrey",41,1,1,1,0,0,0
"1650",9,1,3,"study","Emma Watson",29,1,1,1,0,0,0
"1651",9,2,4,"study","blender",185,1,1,3,0,0,0
"1652",9,2,5,"study","glass",206,1,1,3,0,0,0
"1653",9,2,6,"study","whistle",259,1,1,3,0,0,0
"1654",9,3,7,"study","Carnegie Hall",101,1,1,2,0,0,0
"1655",9,3,8,"study","Prague",139,1,1,2,0,0,0
"1656",9,3,9,"study","Cinderella Castle",104,1,1,2,0,0,0
"1657",9,4,10,"study","mango",222,1,1,3,0,0,0
"1658",9,4,11,"study","scarf",237,1,1,3,0,0,0
"1659",9,4,12,"study","onion",225,1,1,3,0,0,0
"1660",9,5,13,"study","Trevi Fountain",162,1,1,2,0,0,0
"1661",9,5,14,"study","Sistine Chapel",151,1,1,2,0,0,0
"1662",9,5,15,"study","Indianapolis Speedway",121,1,1,2,0,0,0
"1663",9,6,16,"study","Taylor Swift",79,1,1,1,0,0,0
"1664",9,6,17,"study","Jay-Z",38,1,1,1,0,0,0
"1665",9,6,18,"study","Tobey Maguire",81,1,1,1,0,0,0
"1666",9,7,19,"study","Louvre",124,1,1,2,0,0,0
"1667",9,7,20,"study","Mecca",128,1,1,2,0,0,0
"1668",9,7,21,"study","Gettysburg",113,1,1,2,0,0,0
"1669",9,8,22,"study","feather",202,1,1,3,0,0,0
"1670",9,8,23,"study","ladder",218,1,1,3,0,0,0
"1671",9,8,24,"study","bottle",187,1,1,3,0,0,0
"1672",9,9,25,"study","David Beckham",22,1,1,1,0,0,0
"1673",9,9,26,"study","Alec Baldwin",2,1,1,1,0,0,0
"1674",9,9,27,"study","Ashton Kutcher",8,1,1,1,0,0,0
"1675",9,1,1,"study","Quebec",140,1,0,2,0,0,0
"1676",9,1,2,"study","Brooklyn Bridge",98,1,0,2,0,0,0
"1677",9,1,3,"study","Oxford",133,1,0,2,0,0,0
"1678",9,2,4,"study","staple remover",246,1,0,3,0,0,0
"1679",9,2,5,"study","lantern",219,1,0,3,0,0,0
"1680",9,2,6,"study","soap",243,1,0,3,0,0,0
"1681",9,3,7,"study","Lil Wayne",53,1,0,1,0,0,0
"1682",9,3,8,"study","Tom Cruise",82,1,0,1,0,0,0
"1683",9,3,9,"study","Owen Wilson",65,1,0,1,0,0,0
"1684",9,4,10,"study","Tower of Pisa",161,1,0,2,0,0,0
"1685",9,4,11,"study","North Pole",132,1,0,2,0,0,0
"1686",9,4,12,"study","Masada",127,1,0,2,0,0,0
"1687",9,5,13,"study","shirt",239,1,0,3,0,0,0
"1688",9,5,14,"study","helmet",211,1,0,3,0,0,0
"1689",9,5,15,"study","football",205,1,0,3,0,0,0
"1690",9,6,16,"study","Simon Cowell",74,1,0,1,0,0,0
"1691",9,6,17,"study","Eminem",28,1,0,1,0,0,0
"1692",9,6,18,"study","George Clooney",30,1,0,1,0,0,0
"1693",9,7,19,"study","Barcelona Cathedral",95,1,0,2,0,0,0
"1694",9,7,20,"study","Venice",166,1,0,2,0,0,0
"1695",9,7,21,"study","Serengeti Plain",148,1,0,2,0,0,0
"1696",9,8,22,"study","briefcase",191,1,0,3,0,0,0
"1697",9,8,23,"study","calculator",194,1,0,3,0,0,0
"1698",9,8,24,"study","kleenex",217,1,0,3,0,0,0
"1699",9,9,25,"study","Meryl Streep",59,1,0,1,0,0,0
"1700",9,9,26,"study","Leonardo DiCaprio",51,1,0,1,0,0,0
"1701",9,9,27,"study","Sylvester Stallone",78,1,0,1,0,0,0
"1702",9,1,1,"study","Shanghai",149,1,1,2,0,0,0
"1703",9,1,2,"study","Kyoto",122,1,1,2,0,0,0
"1704",9,1,3,"study","United Nations Building",163,1,1,2,0,0,0
"1705",9,2,4,"study","bicycle",183,1,1,3,0,0,0
"1706",9,2,5,"study","speaker",244,1,1,3,0,0,0
"1707",9,2,6,"study","basket",180,1,1,3,0,0,0
"1708",9,3,7,"study","Harrison Ford",33,1,1,1,0,0,0
"1709",9,3,8,"study","Lindsay Lohan",54,1,1,1,0,0,0
"1710",9,3,9,"study","Usher",84,1,1,1,0,0,0
"1711",9,4,10,"study","umbrella",254,1,1,3,0,0,0
"1712",9,4,11,"study","cradle",197,1,1,3,0,0,0
"1713",9,4,12,"study","tent",248,1,1,3,0,0,0
"1714",9,5,13,"study","Ellen Page",26,1,1,1,0,0,0
"1715",9,5,14,"study","Beyonce Knowles",11,1,1,1,0,0,0
"1716",9,5,15,"study","Sofia Vergara",76,1,1,1,0,0,0
"1717",9,6,16,"study","Alcatraz",90,1,1,2,0,0,0
"1718",9,6,17,"study","Grand Central Station",116,1,1,2,0,0,0
"1719",9,6,18,"study","Hong Kong",118,1,1,2,0,0,0
"1720",9,7,19,"study","Matt Damon",58,1,1,1,0,0,0
"1721",9,7,20,"study","Andy Samberg",5,1,1,1,0,0,0
"1722",9,7,21,"study","Halle Berry",32,1,1,1,0,0,0
"1723",9,8,22,"study","towel",251,1,1,3,0,0,0
"1724",9,8,23,"study","purse",232,1,1,3,0,0,0
"1725",9,8,24,"study","safe",234,1,1,3,0,0,0
"1726",9,9,25,"study","Colosseum",105,1,1,2,0,0,0
"1727",9,9,26,"study","Yankee Stadium",173,1,1,2,0,0,0
"1728",9,9,27,"study","Walk of Fame",169,1,1,2,0,0,0
"1729",10,1,1,"study","Cinderella Castle",104,1,1,2,0,0,0
"1730",10,1,2,"study","Colosseum",105,1,1,2,0,0,0
"1731",10,1,3,"study","Universal Studios",164,1,1,2,0,0,0
"1732",10,2,4,"study","blender",185,1,1,3,0,0,0
"1733",10,2,5,"study","backpack",178,1,1,3,0,0,0
"1734",10,2,6,"study","shelf",238,1,1,3,0,0,0
"1735",10,3,7,"study","Oprah Winfrey",63,1,1,1,0,0,0
"1736",10,3,8,"study","David Beckham",22,1,1,1,0,0,0
"1737",10,3,9,"study","Reese Witherspoon",68,1,1,1,0,0,0
"1738",10,4,10,"study","Florence",111,1,1,2,0,0,0
"1739",10,4,11,"study","Shanghai",149,1,1,2,0,0,0
"1740",10,4,12,"study","Monticello",130,1,1,2,0,0,0
"1741",10,5,13,"study","football",205,1,1,3,0,0,0
"1742",10,5,14,"study","teapot",247,1,1,3,0,0,0
"1743",10,5,15,"study","bell",182,1,1,3,0,0,0
"1744",10,6,16,"study","Tina Fey",80,1,1,1,0,0,0
"1745",10,6,17,"study","Leonardo DiCaprio",51,1,1,1,0,0,0
"1746",10,6,18,"study","Bruce Willis",15,1,1,1,0,0,0
"1747",10,7,19,"study","ladder",218,1,1,3,0,0,0
"1748",10,7,20,"study","hammer",209,1,1,3,0,0,0
"1749",10,7,21,"study","fireplace",203,1,1,3,0,0,0
"1750",10,8,22,"study","Serengeti Plain",148,1,1,2,0,0,0
"1751",10,8,23,"study","Delphi",108,1,1,2,0,0,0
"1752",10,8,24,"study","Hungarian Parliament",120,1,1,2,0,0,0
"1753",10,9,25,"study","Lisa Kudrow",55,1,1,1,0,0,0
"1754",10,9,26,"study","Brad Pitt",13,1,1,1,0,0,0
"1755",10,9,27,"study","Andy Samberg",5,1,1,1,0,0,0
"1756",10,1,1,"study","whistle",259,1,0,3,0,0,0
"1757",10,1,2,"study","box",189,1,0,3,0,0,0
"1758",10,1,3,"study","bed",181,1,0,3,0,0,0
"1759",10,2,4,"study","Morgan Freeman",62,1,0,1,0,0,0
"1760",10,2,5,"study","Scarlett Johansson",73,1,0,1,0,0,0
"1761",10,2,6,"study","Johnny Depp",42,1,0,1,0,0,0
"1762",10,3,7,"study","Tahiti",157,1,0,2,0,0,0
"1763",10,3,8,"study","San Francisco",147,1,0,2,0,0,0
"1764",10,3,9,"study","Venice",166,1,0,2,0,0,0
"1765",10,4,10,"study","saucepan",236,1,0,3,0,0,0
"1766",10,4,11,"study","skateboard",242,1,0,3,0,0,0
"1767",10,4,12,"study","cradle",197,1,0,3,0,0,0
"1768",10,5,13,"study","Soho",152,1,0,2,0,0,0
"1769",10,5,14,"study","Yankee Stadium",173,1,0,2,0,0,0
"1770",10,5,15,"study","Everglades",109,1,0,2,0,0,0
"1771",10,6,16,"study","Tobey Maguire",81,1,0,1,0,0,0
"1772",10,6,17,"study","Mariah Carey",57,1,0,1,0,0,0
"1773",10,6,18,"study","Drew Barrymore",25,1,0,1,0,0,0
"1774",10,7,19,"study","bottle",187,1,0,3,0,0,0
"1775",10,7,20,"study","soap",243,1,0,3,0,0,0
"1776",10,7,21,"study","tripod",253,1,0,3,0,0,0
"1777",10,8,22,"study","Keira Knightley",47,1,0,1,0,0,0
"1778",10,8,23,"study","Kate Winslet",46,1,0,1,0,0,0
"1779",10,8,24,"study","Barack Obama",9,1,0,1,0,0,0
"1780",10,9,25,"study","Niagara Falls",131,1,0,2,0,0,0
"1781",10,9,26,"study","Grand Central Station",116,1,0,2,0,0,0
"1782",10,9,27,"study","Atomium",93,1,0,2,0,0,0
"1783",10,1,1,"study","dollar",199,1,1,3,0,0,0
"1784",10,1,2,"study","birdhouse",184,1,1,3,0,0,0
"1785",10,1,3,"study","projector",231,1,1,3,0,0,0
"1786",10,2,4,"study","Sofia Vergara",76,1,1,1,0,0,0
"1787",10,2,5,"study","Jay-Z",38,1,1,1,0,0,0
"1788",10,2,6,"study","Hugh Jackman",34,1,1,1,0,0,0
"1789",10,3,7,"study","Great Wall of China",117,1,1,2,0,0,0
"1790",10,3,8,"study","Hoover Dam",119,1,1,2,0,0,0
"1791",10,3,9,"study","Gettysburg",113,1,1,2,0,0,0
"1792",10,4,10,"study","Ben Stiller",10,1,1,1,0,0,0
"1793",10,4,11,"study","Anne Hathaway",7,1,1,1,0,0,0
"1794",10,4,12,"study","Angelina Jolie",6,1,1,1,0,0,0
"1795",10,5,13,"study","vase",256,1,1,3,0,0,0
"1796",10,5,14,"study","lantern",219,1,1,3,0,0,0
"1797",10,5,15,"study","printer",230,1,1,3,0,0,0
"1798",10,6,16,"study","Barcelona Cathedral",95,1,1,2,0,0,0
"1799",10,6,17,"study","Louvre",124,1,1,2,0,0,0
"1800",10,6,18,"study","Timbuktu",159,1,1,2,0,0,0
"1801",10,7,19,"study","highlighter",212,1,1,3,0,0,0
"1802",10,7,20,"study","tire",250,1,1,3,0,0,0
"1803",10,7,21,"study","trash can",252,1,1,3,0,0,0
"1804",10,8,22,"study","Halle Berry",32,1,1,1,0,0,0
"1805",10,8,23,"study","Justin Bieber",45,1,1,1,0,0,0
"1806",10,8,24,"study","Alicia Keys",3,1,1,1,0,0,0
"1807",10,9,25,"study","Florida Keys",112,1,1,2,0,0,0
"1808",10,9,26,"study","Wimbledon",172,1,1,2,0,0,0
"1809",10,9,27,"study","Pompeii",137,1,1,2,0,0,0
"1810",10,1,1,"study","brick",190,1,0,3,0,0,0
"1811",10,1,2,"study","water gun",258,1,0,3,0,0,0
"1812",10,1,3,"study","anchor",176,1,0,3,0,0,0
"1813",10,2,4,"study","North Pole",132,1,0,2,0,0,0
"1814",10,2,5,"study","Masada",127,1,0,2,0,0,0
"1815",10,2,6,"study","Rio de Janeiro",143,1,0,2,0,0,0
"1816",10,3,7,"study","Jim Carrey",41,1,0,1,0,0,0
"1817",10,3,8,"study","Beyonce Knowles",11,1,0,1,0,0,0
"1818",10,3,9,"study","Gwyneth Paltrow",31,1,0,1,0,0,0
"1819",10,4,10,"study","cigar",196,1,0,3,0,0,0
"1820",10,4,11,"study","safe",234,1,0,3,0,0,0
"1821",10,4,12,"study","mascara",223,1,0,3,0,0,0
"1822",10,5,13,"study","Paul McCartney",66,1,0,1,0,0,0
"1823",10,5,14,"study","Will Smith",86,1,0,1,0,0,0
"1824",10,5,15,"study","Jennifer Lawrence",39,1,0,1,0,0,0
"1825",10,6,16,"study","Quebec",140,1,0,2,0,0,0
"1826",10,6,17,"study","Petronas Towers",136,1,0,2,0,0,0
"1827",10,6,18,"study","Mecca",128,1,0,2,0,0,0
"1828",10,7,19,"study","sink",241,1,0,3,0,0,0
"1829",10,7,20,"study","hanger",210,1,0,3,0,0,0
"1830",10,7,21,"study","perfume",227,1,0,3,0,0,0
"1831",10,8,22,"study","Kristen Stewart",49,1,0,1,0,0,0
"1832",10,8,23,"study","Amy Poehler",4,1,0,1,0,0,0
"1833",10,8,24,"study","Cameron Diaz",16,1,0,1,0,0,0
"1834",10,9,25,"study","United Nations Building",163,1,0,2,0,0,0
"1835",10,9,26,"study","Salt Flats",146,1,0,2,0,0,0
"1836",10,9,27,"study","Roman Forum",144,1,0,2,0,0,0
"1837",10,1,1,"study","Indianapolis Speedway",121,1,1,2,0,0,0
"1838",10,1,2,"study","Arc de Triomphe",92,1,1,2,0,0,0
"1839",10,1,3,"study","Versailles",167,1,1,2,0,0,0
"1840",10,2,4,"study","Jamie Foxx",37,1,1,1,0,0,0
"1841",10,2,5,"study","Harrison Ford",33,1,1,1,0,0,0
"1842",10,2,6,"study","Vin Diesel",85,1,1,1,0,0,0
"1843",10,3,7,"study","violin",257,1,1,3,0,0,0
"1844",10,3,8,"study","cactus",193,1,1,3,0,0,0
"1845",10,3,9,"study","briefcase",191,1,1,3,0,0,0
"1846",10,4,10,"study","Kobe Bryant",48,1,1,1,0,0,0
"1847",10,4,11,"study","Snoop Dogg",75,1,1,1,0,0,0
"1848",10,4,12,"study","Meryl Streep",59,1,1,1,0,0,0
"1849",10,5,13,"study","ketchup",215,1,1,3,0,0,0
"1850",10,5,14,"study","balloon",179,1,1,3,0,0,0
"1851",10,5,15,"study","towel",251,1,1,3,0,0,0
"1852",10,6,16,"study","Giza Pyramids",114,1,1,2,0,0,0
"1853",10,6,17,"study","Big Ben",96,1,1,2,0,0,0
"1854",10,6,18,"study","Oxford",133,1,1,2,0,0,0
"1855",10,7,19,"study","Elton John",27,1,1,1,0,0,0
"1856",10,7,20,"study","Emma Watson",29,1,1,1,0,0,0
"1857",10,7,21,"study","Julianne Moore",44,1,1,1,0,0,0
"1858",10,8,22,"study","candle",195,1,1,3,0,0,0
"1859",10,8,23,"study","earrings",201,1,1,3,0,0,0
"1860",10,8,24,"study","mango",222,1,1,3,0,0,0
"1861",10,9,25,"study","White House",171,1,1,2,0,0,0
"1862",10,9,26,"study","Walk of Fame",169,1,1,2,0,0,0
"1863",10,9,27,"study","Alamo",89,1,1,2,0,0,0
"1864",10,1,1,"study","calculator",194,1,0,3,0,0,0
"1865",10,1,2,"study","speaker",244,1,0,3,0,0,0
"1866",10,1,3,"study","vacuum cleaner",255,1,0,3,0,0,0
"1867",10,2,4,"study","Vatican City",165,1,0,2,0,0,0
"1868",10,2,5,"study","Mall of America",126,1,0,2,0,0,0
"1869",10,2,6,"study","Tower of Pisa",161,1,0,2,0,0,0
"1870",10,3,7,"study","Ricky Martin",69,1,0,1,0,0,0
"1871",10,3,8,"study","Matt Damon",58,1,0,1,0,0,0
"1872",10,3,9,"study","Lindsay Lohan",54,1,0,1,0,0,0
"1873",10,4,10,"study","onion",225,1,0,3,0,0,0
"1874",10,4,11,"study","crayon",198,1,0,3,0,0,0
"1875",10,4,12,"study","tent",248,1,0,3,0,0,0
"1876",10,5,13,"study","Amazon River",91,1,0,2,0,0,0
"1877",10,5,14,"study","Machu Picchu",125,1,0,2,0,0,0
"1878",10,5,15,"study","Ayers Rock",94,1,0,2,0,0,0
"1879",10,6,16,"study","Ellen Page",26,1,0,1,0,0,0
"1880",10,6,17,"study","Uma Thurman",83,1,0,1,0,0,0
"1881",10,6,18,"study","Drake",24,1,0,1,0,0,0
"1882",10,7,19,"study","Stonehenge",154,1,0,2,0,0,0
"1883",10,7,20,"study","Vienna",168,1,0,2,0,0,0
"1884",10,7,21,"study","Prague",139,1,0,2,0,0,0
"1885",10,8,22,"study","umbrella",254,1,0,3,0,0,0
"1886",10,8,23,"study","keychain",216,1,0,3,0,0,0
"1887",10,8,24,"study","kleenex",217,1,0,3,0,0,0
"1888",10,9,25,"study","Jessica Simpson",40,1,0,1,0,0,0
"1889",10,9,26,"study","Bill Gates",12,1,0,1,0,0,0
"1890",10,9,27,"study","Simon Cowell",74,1,0,1,0,0,0
"1891",10,1,1,"study","Tom Cruise",82,1,1,1,0,0,0
"1892",10,1,2,"study","Larry King",50,1,1,1,0,0,0
"1893",10,1,3,"study","Denzel Washington",23,1,1,1,0,0,0
"1894",10,2,4,"study","Churchill Downs",103,1,1,2,0,0,0
"1895",10,2,5,"study","Bunker Hill",99,1,1,2,0,0,0
"1896",10,2,6,"study","Alcatraz",90,1,1,2,0,0,0
"1897",10,3,7,"study","hurdle",213,1,1,3,0,0,0
"1898",10,3,8,"study","book",186,1,1,3,0,0,0
"1899",10,3,9,"study","satellite dish",235,1,1,3,0,0,0
"1900",10,4,10,"study","Kyoto",122,1,1,2,0,0,0
"1901",10,4,11,"study","Hong Kong",118,1,1,2,0,0,0
"1902",10,4,12,"study","Redwood Forest",142,1,1,2,0,0,0
"1903",10,5,13,"study","Sylvester Stallone",78,1,1,1,0,0,0
"1904",10,5,14,"study","Owen Wilson",65,1,1,1,0,0,0
"1905",10,5,15,"study","Orlando Bloom",64,1,1,1,0,0,0
"1906",10,6,16,"study","staple remover",246,1,1,3,0,0,0
"1907",10,6,17,"study","glass",206,1,1,3,0,0,0
"1908",10,6,18,"study","globe",207,1,1,3,0,0,0
"1909",10,7,19,"study","Usher",84,1,1,1,0,0,0
"1910",10,7,20,"study","Lil Wayne",53,1,1,1,0,0,0
"1911",10,7,21,"study","Eminem",28,1,1,1,0,0,0
"1912",10,8,22,"study","feather",202,1,1,3,0,0,0
"1913",10,8,23,"study","scarf",237,1,1,3,0,0,0
"1914",10,8,24,"study","bowling ball",188,1,1,3,0,0,0
"1915",10,9,25,"study","Space Needle",153,1,1,2,0,0,0
"1916",10,9,26,"study","Swiss Alps",155,1,1,2,0,0,0
"1917",10,9,27,"study","Petra",135,1,1,2,0,0,0
"1918",10,1,1,"study","bicycle",183,1,0,3,0,0,0
"1919",10,1,2,"study","purse",232,1,0,3,0,0,0
"1920",10,1,3,"study","shirt",239,1,0,3,0,0,0
"1921",10,2,4,"study","Brooklyn Bridge",98,1,0,2,0,0,0
"1922",10,2,5,"study","Sistine Chapel",151,1,0,2,0,0,0
"1923",10,2,6,"study","Trevi Fountain",162,1,0,2,0,0,0
"1924",10,3,7,"study","Jonah Hill",43,1,0,1,0,0,0
"1925",10,3,8,"study","Madonna",56,1,0,1,0,0,0
"1926",10,3,9,"study","Britney Spears",14,1,0,1,0,0,0
"1927",10,4,10,"study","Carnegie Hall",101,1,0,2,0,0,0
"1928",10,4,11,"study","Globe Theater",115,1,0,2,0,0,0
"1929",10,4,12,"study","Sydney Opera House",156,1,0,2,0,0,0
"1930",10,5,13,"study","shovel",240,1,0,3,0,0,0
"1931",10,5,14,"study","helmet",211,1,0,3,0,0,0
"1932",10,5,15,"study","thermometer",249,1,0,3,0,0,0
"1933",10,6,16,"study","Taylor Swift",79,1,0,1,0,0,0
"1934",10,6,17,"study","Ashton Kutcher",8,1,0,1,0,0,0
"1935",10,6,18,"study","George Clooney",30,1,0,1,0,0,0
"1936",10,7,19,"study","basket",180,1,0,3,0,0,0
"1937",10,7,20,"study","flower",204,1,0,3,0,0,0
"1938",10,7,21,"study","medal",224,1,0,3,0,0,0
"1939",10,8,22,"study","Chicago",102,1,0,2,0,0,0
"1940",10,8,23,"study","Monte Carlo",129,1,0,2,0,0,0
"1941",10,8,24,"study","Times Square",160,1,0,2,0,0,0
"1942",10,9,25,"study","Steven Spielberg",77,1,0,1,0,0,0
"1943",10,9,26,"study","Ian McKellan",35,1,0,1,0,0,0
"1944",10,9,27,"study","Alec Baldwin",2,1,0,1,0,0,0
"1945",11,1,1,"study","Kate Winslet",46,1,0,1,0,0,0
"1946",11,1,2,"study","Ricky Martin",69,1,0,1,0,0,0
"1947",11,1,3,"study","Cameron Diaz",16,1,0,1,0,0,0
"1948",11,2,4,"study","blender",185,1,0,3,0,0,0
"1949",11,2,5,"study","fireplace",203,1,0,3,0,0,0
"1950",11,2,6,"study","brick",190,1,0,3,0,0,0
"1951",11,3,7,"study","Salt Flats",146,1,0,2,0,0,0
"1952",11,3,8,"study","Monticello",130,1,0,2,0,0,0
"1953",11,3,9,"study","Yankee Stadium",173,1,0,2,0,0,0
"1954",11,4,10,"study","candle",195,1,0,3,0,0,0
"1955",11,4,11,"study","lantern",219,1,0,3,0,0,0
"1956",11,4,12,"study","medal",224,1,0,3,0,0,0
"1957",11,5,13,"study","Petronas Towers",136,1,0,2,0,0,0
"1958",11,5,14,"study","Hoover Dam",119,1,0,2,0,0,0
"1959",11,5,15,"study","Machu Picchu",125,1,0,2,0,0,0
"1960",11,6,16,"study","Julianne Moore",44,1,0,1,0,0,0
"1961",11,6,17,"study","Will Smith",86,1,0,1,0,0,0
"1962",11,6,18,"study","Madonna",56,1,0,1,0,0,0
"1963",11,7,19,"study","briefcase",191,1,0,3,0,0,0
"1964",11,7,20,"study","bicycle",183,1,0,3,0,0,0
"1965",11,7,21,"study","projector",231,1,0,3,0,0,0
"1966",11,8,22,"study","Lindsay Lohan",54,1,0,1,0,0,0
"1967",11,8,23,"study","Emma Watson",29,1,0,1,0,0,0
"1968",11,8,24,"study","Simon Cowell",74,1,0,1,0,0,0
"1969",11,9,25,"study","Chicago",102,1,0,2,0,0,0
"1970",11,9,26,"study","Wimbledon",172,1,0,2,0,0,0
"1971",11,9,27,"study","Louvre",124,1,0,2,0,0,0
"1972",11,1,1,"study","Trevi Fountain",162,1,1,2,0,0,0
"1973",11,1,2,"study","Tower of Pisa",161,1,1,2,0,0,0
"1974",11,1,3,"study","Walk of Fame",169,1,1,2,0,0,0
"1975",11,2,4,"study","Amy Poehler",4,1,1,1,0,0,0
"1976",11,2,5,"study","Lisa Kudrow",55,1,1,1,0,0,0
"1977",11,2,6,"study","Orlando Bloom",64,1,1,1,0,0,0
"1978",11,3,7,"study","scarf",237,1,1,3,0,0,0
"1979",11,3,8,"study","bowling ball",188,1,1,3,0,0,0
"1980",11,3,9,"study","shovel",240,1,1,3,0,0,0
"1981",11,4,10,"study","Matt Damon",58,1,1,1,0,0,0
"1982",11,4,11,"study","Ben Stiller",10,1,1,1,0,0,0
"1983",11,4,12,"study","Beyonce Knowles",11,1,1,1,0,0,0
"1984",11,5,13,"study","Everglades",109,1,1,2,0,0,0
"1985",11,5,14,"study","Churchill Downs",103,1,1,2,0,0,0
"1986",11,5,15,"study","Hong Kong",118,1,1,2,0,0,0
"1987",11,6,16,"study","birdhouse",184,1,1,3,0,0,0
"1988",11,6,17,"study","vacuum cleaner",255,1,1,3,0,0,0
"1989",11,6,18,"study","balloon",179,1,1,3,0,0,0
"1990",11,7,19,"study","Vin Diesel",85,1,1,1,0,0,0
"1991",11,7,20,"study","Scarlett Johansson",73,1,1,1,0,0,0
"1992",11,7,21,"study","Alicia Keys",3,1,1,1,0,0,0
"1993",11,8,22,"study","Alcatraz",90,1,1,2,0,0,0
"1994",11,8,23,"study","Space Needle",153,1,1,2,0,0,0
"1995",11,8,24,"study","Rio de Janeiro",143,1,1,2,0,0,0
"1996",11,9,25,"study","crayon",198,1,1,3,0,0,0
"1997",11,9,26,"study","hanger",210,1,1,3,0,0,0
"1998",11,9,27,"study","thermometer",249,1,1,3,0,0,0
"1999",11,1,1,"study","San Francisco",147,1,0,2,0,0,0
"2000",11,1,2,"study","Carnegie Hall",101,1,0,2,0,0,0
"2001",11,1,3,"study","Indianapolis Speedway",121,1,0,2,0,0,0
"2002",11,2,4,"study","Larry King",50,1,0,1,0,0,0
"2003",11,2,5,"study","Hugh Jackman",34,1,0,1,0,0,0
